"Time (s)","Gyroscope x (rad/s)","Gyroscope y (rad/s)","Gyroscope z (rad/s)","Absolute (rad/s)"
1.215661520E-1,-8.414421231E-2,8.399150101E-4,-3.970507067E-3,8.424202543E-2
1.241265690E-1,-8.719844371E-2,2.061609412E-3,-5.192201585E-3,8.737721543E-2
1.266868810E-1,-8.658760041E-2,3.283303929E-3,-5.192201585E-3,8.680525092E-2
1.292470900E-1,-8.780929446E-2,8.399150101E-4,-2.748812549E-3,8.785632374E-2
1.318071940E-1,-8.903098851E-2,3.283303929E-3,-3.359660041E-3,8.915483339E-2
1.343672460E-1,-9.330692142E-2,5.115845706E-3,4.581354558E-3,9.355929816E-2
1.369272460E-1,-9.391776472E-2,8.399150101E-4,7.635590620E-3,9.423138666E-2
1.394871940E-1,-9.819369763E-2,5.726693198E-3,7.635590620E-3,9.865647223E-2
1.420470900E-1,-1.012479365E-1,2.290677221E-4,7.024743594E-3,1.014915964E-1
1.446069330E-1,-1.024696305E-1,-2.825168660E-3,3.970507067E-3,1.025854360E-1
1.471636000E-1,-1.043021679E-1,1.450762269E-3,2.748812549E-3,1.043484686E-1
1.496714130E-1,-1.110214889E-1,5.115845706E-3,2.137965523E-3,1.111598568E-1
1.521793290E-1,-1.146865711E-1,2.290677221E-4,3.359660041E-3,1.147359986E-1
1.546872460E-1,-1.183516532E-1,6.337540224E-3,-1.527118147E-3,1.185310522E-1
1.571951630E-1,-1.244601309E-1,2.672456671E-3,-1.527118147E-3,1.244981860E-1
1.597030270E-1,-1.275143623E-1,4.504998680E-3,-3.054236295E-4,1.275942824E-1
1.622109440E-1,-1.311794519E-1,4.504998680E-3,-9.162708884E-4,1.312599832E-1
1.647188600E-1,-1.385096163E-1,3.283303929E-3,-3.054236295E-4,1.385488620E-1
1.672267770E-1,-1.446180940E-1,-3.817795368E-4,-9.162708884E-4,1.446215005E-1
1.697346420E-1,-1.519482583E-1,6.948387716E-3,3.970507067E-3,1.521588585E-1
1.722425580E-1,-1.568350345E-1,3.894151188E-3,3.970507067E-3,1.569336082E-1
1.747504750E-1,-1.605001241E-1,8.399150101E-4,4.581354558E-3,1.605676932E-1
1.772583920E-1,-1.666085869E-1,3.894151188E-3,5.192201585E-3,1.667349532E-1
1.797662560E-1,-1.745496094E-1,2.061609412E-3,3.359660041E-3,1.745941113E-1
1.822741730E-1,-1.806580722E-1,3.894151188E-3,3.359660041E-3,1.807312668E-1
1.847820900E-1,-1.861557066E-1,3.894151188E-3,2.137965523E-3,1.862087066E-1
1.872899540E-1,-1.922641695E-1,2.290677221E-4,2.748812549E-3,1.922839549E-1
1.897978710E-1,-1.995943487E-1,-3.817795368E-4,2.748812549E-3,1.996136412E-1
1.923057880E-1,-2.087570578E-1,5.115845706E-3,-3.054236295E-4,2.088199567E-1
1.948137040E-1,-2.179197669E-1,6.337540224E-3,3.054236295E-4,2.180121155E-1
1.973215690E-1,-2.228065431E-1,1.450762269E-3,9.162708884E-4,2.228131502E-1
1.998294850E-1,-2.313583940E-1,4.504998680E-3,9.162708884E-4,2.314040645E-1
2.023374020E-1,-2.399102598E-1,5.115845706E-3,3.359660041E-3,2.399883163E-1
2.048453190E-1,-2.441861928E-1,-3.817795368E-4,4.581354558E-3,2.442294644E-1
2.073531830E-1,-2.539597452E-1,2.672456671E-3,7.024743594E-3,2.540709374E-1
2.098611000E-1,-2.606790662E-1,6.337540224E-3,6.413896102E-3,2.608349632E-1
2.123690170E-1,-2.686200738E-1,4.504998680E-3,8.246437646E-3,2.687843797E-1
2.148769330E-1,-2.771719396E-1,6.948387716E-3,6.413896102E-3,2.773331972E-1
2.173847980E-1,-2.820587158E-1,6.337540224E-3,4.581354558E-3,2.821671001E-1
2.198927150E-1,-2.924431264E-1,5.115845706E-3,4.581354558E-3,2.925237476E-1
2.224006310E-1,-2.985515893E-1,3.894151188E-3,4.581354558E-3,2.986121308E-1
2.249084960E-1,-3.083251417E-1,4.504998680E-3,3.359660041E-3,3.083763534E-1
2.274164130E-1,-3.150444627E-1,6.337540224E-3,3.970507067E-3,3.151332144E-1
2.299243290E-1,-3.205420971E-1,8.170082234E-3,1.527118147E-3,3.206498376E-1
2.324322460E-1,-3.284831047E-1,5.726693198E-3,3.970507067E-3,3.285570118E-1
2.349401100E-1,-3.364241421E-1,8.170082234E-3,2.137965523E-3,3.365301243E-1
2.374480270E-1,-3.461976945E-1,7.559234742E-3,4.581354558E-3,3.463105175E-1
2.399559440E-1,-3.535278440E-1,7.559234742E-3,6.413896102E-3,3.536668157E-1
2.424638600E-1,-3.596363366E-1,6.337540224E-3,6.413896102E-3,3.597493531E-1
2.449717250E-1,-3.639122546E-1,2.672456671E-3,5.192201585E-3,3.639591049E-1
2.474796420E-1,-3.724641204E-1,5.726693198E-3,6.413896102E-3,3.725633558E-1
2.499875580E-1,-3.791834414E-1,7.559234742E-3,5.803049076E-3,3.793031764E-1
2.524954750E-1,-3.865135908E-1,5.726693198E-3,7.024743594E-3,3.866198364E-1
2.550033400E-1,-3.914003670E-1,1.450762269E-3,6.413896102E-3,3.914556042E-1
2.575112560E-1,-4.017847776E-1,2.061609412E-3,3.359660041E-3,4.018041128E-1
2.600191730E-1,-4.030064642E-1,8.170082234E-3,3.970507067E-3,4.031088257E-1
2.625270900E-1,-4.066715539E-1,5.726693198E-3,7.635590620E-3,4.067835419E-1
2.650349540E-1,-4.133908749E-1,5.726693198E-3,3.970507067E-3,4.134496044E-1
2.675428710E-1,-4.243861437E-1,8.170082234E-3,-3.054236295E-4,4.244648896E-1
2.700507880E-1,-4.311054647E-1,6.337540224E-3,3.054236295E-4,4.311521534E-1
2.725587040E-1,-4.311054647E-1,5.726693198E-3,8.857285604E-3,4.312344701E-1
2.750665690E-1,-4.341596961E-1,7.559234742E-3,1.374406368E-2,4.344429572E-1
2.775744850E-1,-4.366030693E-1,1.122431830E-2,1.252236869E-2,4.369268076E-1
2.800824020E-1,-4.353813827E-1,2.061609412E-3,5.803049076E-3,4.354249350E-1
2.825903190E-1,-4.323271513E-1,6.337540224E-3,3.970507067E-3,4.323918305E-1
2.850981830E-1,-4.329380095E-1,3.283303929E-3,3.970507067E-3,4.329686652E-1
2.876061000E-1,-4.372139275E-1,7.559234742E-3,7.024743594E-3,4.373356920E-1
2.901140170E-1,-4.372139275E-1,4.504998680E-3,6.413896102E-3,4.372841770E-1
2.926218810E-1,-4.347705245E-1,3.283303929E-3,7.024743594E-3,4.348396671E-1
2.951297980E-1,-4.390464723E-1,9.391776286E-3,7.635590620E-3,4.392132882E-1
2.976377150E-1,-4.414898455E-1,8.780929260E-3,2.137965523E-3,4.415823358E-1
3.001456310E-1,-4.427115619E-1,7.559234742E-3,2.137965523E-3,4.427812552E-1
3.026535480E-1,-4.433223903E-1,3.283303929E-3,9.162708884E-4,4.433354953E-1
3.051614130E-1,-4.500417113E-1,7.559234742E-3,6.413896102E-3,4.501508881E-1
3.076693290E-1,-4.518742561E-1,6.337540224E-3,7.024743594E-3,4.519732899E-1
3.101772460E-1,-4.537068009E-1,5.726693198E-3,1.068982668E-2,4.538688452E-1
3.126851100E-1,-4.555393457E-1,1.183516532E-2,1.007897966E-2,4.558045113E-1
3.151930270E-1,-4.598152637E-1,9.391776286E-3,7.024743594E-3,4.599648131E-1
3.177009440E-1,-4.592044353E-1,1.122431830E-2,5.803049076E-3,4.593782474E-1
3.202088600E-1,-4.622586668E-1,8.170082234E-3,3.359660041E-3,4.623430680E-1
3.227167250E-1,-4.659237564E-1,7.559234742E-3,7.024743594E-3,4.660380197E-1
3.252246420E-1,-4.683671296E-1,3.894151188E-3,5.803049076E-3,4.684192650E-1
3.277325580E-1,-4.720322192E-1,5.726693198E-3,7.024743594E-3,4.721192201E-1
3.302404750E-1,-4.750864506E-1,7.559234742E-3,5.192201585E-3,4.751749536E-1
3.327483400E-1,-4.787515402E-1,1.183516532E-2,5.192201585E-3,4.789259518E-1
3.352562560E-1,-4.811949134E-1,8.170082234E-3,4.581354558E-3,4.812860726E-1
3.377641730E-1,-4.842491746E-1,4.504998680E-3,5.192201585E-3,4.842979631E-1
3.402720900E-1,-4.873034060E-1,7.559234742E-3,8.246437646E-3,4.874317955E-1
3.427799540E-1,-4.903576374E-1,5.726693198E-3,7.024743594E-3,4.904413875E-1
3.452878710E-1,-4.928010404E-1,5.115845706E-3,4.581354558E-3,4.928488877E-1
3.477957880E-1,-4.964661002E-1,8.780929260E-3,6.413896102E-3,4.965851704E-1
3.503037040E-1,-4.976878166E-1,1.061347127E-2,3.359660041E-3,4.978123099E-1
3.528115690E-1,-5.001311898E-1,9.391776286E-3,3.359660041E-3,5.002306466E-1
3.553194850E-1,-5.037962794E-1,9.391776286E-3,3.970507067E-3,5.038994558E-1
3.578274020E-1,-5.062396526E-1,5.115845706E-3,5.803049076E-3,5.062987588E-1
3.603353190E-1,-5.074613690E-1,3.894151188E-3,5.192201585E-3,5.075028714E-1
3.628431830E-1,-5.099047422E-1,1.061347127E-2,5.803049076E-3,5.100482010E-1
3.653511000E-1,-5.135698318E-1,8.780929260E-3,5.192201585E-3,5.136711359E-1
3.678590170E-1,-5.154023767E-1,7.559234742E-3,6.413896102E-3,5.154977109E-1
3.703669330E-1,-5.184566379E-1,6.948387716E-3,5.803049076E-3,5.185356698E-1
3.728747980E-1,-5.172349215E-1,6.948387716E-3,7.024743594E-3,5.173292869E-1
3.753827150E-1,-5.215108395E-1,4.504998680E-3,6.413896102E-3,5.215697353E-1
3.778906310E-1,-5.239542127E-1,5.726693198E-3,7.024743594E-3,5.240325935E-1
3.803985480E-1,-5.263976455E-1,7.559234742E-3,4.581354558E-3,5.264718530E-1
3.829064130E-1,-5.294518471E-1,1.122431830E-2,5.192201585E-3,5.295962638E-1
3.854143290E-1,-5.306735635E-1,8.780929260E-3,4.581354558E-3,5.307659790E-1
3.879222460E-1,-5.331169367E-1,1.183516532E-2,7.024743594E-3,5.332945587E-1
3.904301630E-1,-5.361711979E-1,6.948387716E-3,6.413896102E-3,5.362545772E-1
3.929380270E-1,-5.392253995E-1,6.948387716E-3,5.192201585E-3,5.392951608E-1
3.954459440E-1,-5.410579443E-1,5.726693198E-3,5.192201585E-3,5.411131610E-1
3.979538600E-1,-5.447230339E-1,9.391776286E-3,5.192201585E-3,5.448287328E-1
4.004617770E-1,-5.465555787E-1,6.337540224E-3,6.413896102E-3,5.466299508E-1
4.029696940E-1,-5.489989519E-1,9.391776286E-3,7.635590620E-3,5.491323674E-1
4.054775580E-1,-5.636593103E-1,5.726693198E-3,8.857285604E-3,5.637579841E-1
4.079854750E-1,-6.351284385E-1,8.399150101E-4,3.359660041E-3,6.351378796E-1
4.104933920E-1,-7.023216486E-1,-2.825168660E-3,2.596100792E-2,7.028069818E-1
4.130012560E-1,-7.334748507E-1,1.000262424E-2,1.679829881E-2,7.337353691E-1
4.155091730E-1,-8.397622705E-1,-1.748550311E-2,9.162708884E-4,8.399447918E-1
4.180170900E-1,-9.539906979E-1,1.672194339E-2,1.557660475E-2,9.542643793E-1
4.205250060E-1,-1.024238110E0,3.504735976E-2,7.635590620E-3,1.024866003E0
4.230328710E-1,-1.107924223E0,3.283303929E-3,1.191152167E-2,1.107993117E0
4.255407880E-1,-1.239867210E0,-1.603474026E-3,1.130067464E-2,1.239919746E0
4.280487040E-1,-1.384638071E0,2.710634656E-2,2.290677279E-2,1.385092799E0
4.305566210E-1,-1.491536260E0,1.366770733E-2,2.840439789E-2,1.491869307E0
4.330645380E-1,-1.577665806E0,2.588465251E-2,9.468132630E-3,1.577906542E0
4.355724020E-1,-1.701056957E0,2.649549954E-2,7.635590620E-3,1.701280425E0
4.380803190E-1,-1.825135231E0,4.482091591E-2,2.046338283E-2,1.825800174E0
4.405882350E-1,-1.939974546E0,3.749075159E-2,1.557660475E-2,1.940399296E0
4.430961520E-1,-2.051148653E0,1.000262424E-2,2.779355086E-2,2.051361336E0
4.456040170E-1,-2.173318148E0,1.794363745E-2,2.535016090E-2,2.173540056E0
4.481119330E-1,-2.302817822E0,3.077143058E-2,2.901524492E-2,2.303206175E0
4.506198500E-1,-2.422543764E0,3.016058356E-2,3.145863488E-2,2.422935739E0
4.531277670E-1,-2.534939766E0,3.016058356E-2,2.229592577E-2,2.535217227E0
4.556356310E-1,-2.660163403E0,4.176668078E-2,3.084778599E-2,2.660670098E0
4.581435480E-1,-2.789663076E0,4.421006888E-2,4.184303805E-2,2.790327122E0
4.606514650E-1,-2.915497541E0,3.565821052E-2,3.756710514E-2,2.915957597E0
4.631593810E-1,-3.035223722E0,3.138227761E-2,3.695625812E-2,3.035610920E0
4.656672460E-1,-3.162890673E0,3.749075159E-2,2.962609194E-2,3.163251598E0
4.681751630E-1,-3.295444489E0,4.726430774E-2,3.023693897E-2,3.295922111E0
4.706830790E-1,-3.423111677E0,5.031854287E-2,3.329117596E-2,3.423643354E0
4.731909960E-1,-3.545281172E0,4.970769584E-2,3.878879920E-2,3.545841792E0
4.756988600E-1,-3.668061495E0,5.215108395E-2,4.245388508E-2,3.668677854E0
4.782067770E-1,-3.789619923E0,5.459447205E-2,4.978405312E-2,3.790340112E0
4.807146940E-1,-3.907513618E0,5.031854287E-2,4.734066129E-2,3.908124329E0
4.832226100E-1,-4.026628971E0,4.848600179E-2,4.611896724E-2,4.027184963E0
4.857304750E-1,-4.153685093E0,5.459447205E-2,4.856235534E-2,4.154327709E0
4.882383920E-1,-4.275854588E0,5.520532280E-2,4.795150831E-2,4.276479794E0
4.907463080E-1,-4.398024082E0,5.887040496E-2,5.161659420E-2,4.398720931E0
4.932542250E-1,-4.515993595E0,6.497887522E-2,5.589252338E-2,4.516806879E0
4.957621420E-1,-4.629611492E0,6.925480813E-2,5.711421743E-2,4.630481706E0
4.982700060E-1,-4.735898972E0,6.925480813E-2,5.467082933E-2,4.736720827E0
5.007779230E-1,-4.839131832E0,6.864395738E-2,5.222744122E-2,4.839900473E0
5.032858400E-1,-4.940532684E0,7.047650218E-2,5.283828825E-2,4.941317843E0
5.057937560E-1,-5.038878918E0,6.681142002E-2,5.344913527E-2,5.039605275E0
5.083016210E-1,-5.128062725E0,6.742226332E-2,5.589252338E-2,5.128810491E0
5.108095380E-1,-5.211748600E0,6.742226332E-2,5.833591148E-2,5.212511133E0
5.133174540E-1,-5.298489094E0,7.597412914E-2,5.833591148E-2,5.299354850E0
5.158253710E-1,-5.376066685E0,7.658497244E-2,5.894676223E-2,5.376935277E0
5.183332350E-1,-5.451200962E0,7.536327839E-2,5.772506446E-2,5.452027489E0
5.208411520E-1,-5.521448135E0,7.475243509E-2,6.200099736E-2,5.522302198E0
5.233490690E-1,-5.589252472E0,7.658497244E-2,6.322269142E-2,5.590134664E0
5.258569850E-1,-5.652780533E0,7.414158434E-2,6.566607952E-2,5.653648093E0
5.283649020E-1,-5.713254452E0,7.475243509E-2,6.749862432E-2,5.714142142E0
5.308727670E-1,-5.772506714E0,8.574768156E-2,6.749862432E-2,5.773538126E0
5.333806830E-1,-5.828704357E0,8.391514421E-2,6.749862432E-2,5.829699160E0
5.358886000E-1,-5.882459164E0,8.330429345E-2,6.505523622E-2,5.883408672E0
5.383965170E-1,-5.934381008E0,8.269345015E-2,6.566607952E-2,5.935320395E0
5.409043810E-1,-5.986914158E0,8.269345015E-2,6.383354217E-2,5.987825487E0
5.434122980E-1,-6.032116890E0,8.208259940E-2,6.688777357E-2,6.033046138E0
5.459202150E-1,-6.073043346E0,7.780666649E-2,6.872031838E-2,6.073930511E0
5.484281310E-1,-6.118856907E0,8.452598751E-2,7.238540053E-2,6.119868801E0
5.509359960E-1,-6.165892124E0,8.758022636E-2,7.116370648E-2,6.166924700E0
5.534439130E-1,-6.206819057E0,8.025006205E-2,6.810946763E-2,6.207711477E0
5.559518290E-1,-6.239804745E0,7.902836055E-2,6.566607952E-2,6.240650669E0
5.584597460E-1,-6.269736290E0,7.658497244E-2,6.994201243E-2,6.270594094E0
5.609676100E-1,-6.303943634E0,8.269345015E-2,6.872031838E-2,6.304860508E0
5.634755270E-1,-6.337540150E0,8.758022636E-2,6.933116168E-2,6.338524454E0
5.659834440E-1,-6.360752583E0,8.941277117E-2,7.055285573E-2,6.361772219E0
5.684913600E-1,-6.383964539E0,8.147175610E-2,7.116370648E-2,6.384880982E0
5.709992770E-1,-6.409009457E0,8.696937561E-2,7.299624383E-2,6.410015159E0
5.735071420E-1,-6.431610584E0,8.696937561E-2,7.055285573E-2,6.432585490E0
5.760150580E-1,-6.451158047E0,9.002361447E-2,6.627693027E-2,6.452126551E0
5.785229750E-1,-6.462152958E0,8.391514421E-2,6.810946763E-2,6.463056669E0
5.810308920E-1,-6.483532906E0,8.941277117E-2,7.299624383E-2,6.484560281E0
5.835387560E-1,-6.503690720E0,9.185615927E-2,7.238540053E-2,6.504742130E0
5.860466730E-1,-6.520183563E0,8.574768156E-2,7.299624383E-2,6.521155942E0
5.885545900E-1,-6.534233093E0,8.452598751E-2,7.360709459E-2,6.535194317E0
5.910625060E-1,-6.545839310E0,9.246700257E-2,7.482878864E-2,6.546920021E0
5.935704230E-1,-6.553780079E0,8.452598751E-2,6.872031838E-2,6.554685381E0
5.960782880E-1,-6.562942982E0,8.513683826E-2,7.116370648E-2,6.563880951E0
5.985862040E-1,-6.570272923E0,9.552124143E-2,6.933116168E-2,6.571333000E0
6.010941210E-1,-6.573327541E0,9.246700257E-2,7.299624383E-2,6.574383132E0
6.036020380E-1,-6.575160027E0,9.002361447E-2,8.399149776E-2,6.576312660E0
6.061099020E-1,-6.580046654E0,9.124530852E-2,8.093725890E-2,6.581176985E0
6.086178190E-1,-6.582489967E0,9.246700257E-2,7.727217674E-2,6.583592887E0
6.111257350E-1,-6.576992512E0,8.513683826E-2,6.994201243E-2,6.577915374E0
6.136336520E-1,-6.573327541E0,8.574768156E-2,7.177454978E-2,6.574278608E0
6.161415170E-1,-6.576381683E0,9.307785332E-2,6.872031838E-2,6.577399335E0
6.186494330E-1,-6.575160027E0,9.002361447E-2,6.627693027E-2,6.576110268E0
6.211573500E-1,-6.570272923E0,8.452598751E-2,7.116370648E-2,6.571201959E0
6.236652670E-1,-6.566607952E0,8.819106966E-2,7.543963939E-2,6.567633425E0
6.261731830E-1,-6.564164639E0,9.002361447E-2,7.421794534E-2,6.565201441E0
6.286810480E-1,-6.552558422E0,9.307785332E-2,7.727217674E-2,6.553675026E0
6.311889650E-1,-6.540341377E0,8.758022636E-2,7.299624383E-2,6.541335038E0
6.336968810E-1,-6.529957294E0,8.758022636E-2,7.177454978E-2,6.530938994E0
6.362047980E-1,-6.525070190E0,9.002361447E-2,6.933116168E-2,6.526059458E0
6.387126630E-1,-6.513464451E0,8.452598751E-2,7.116370648E-2,6.514401589E0
6.412205790E-1,-6.504912376E0,8.391514421E-2,6.994201243E-2,6.505829591E0
6.437284960E-1,-6.496360779E0,9.124530852E-2,7.238540053E-2,6.497404768E0
6.462364130E-1,-6.482922077E0,7.841751724E-2,6.994201243E-2,6.483773581E0
6.487443290E-1,-6.468872547E0,8.147175610E-2,7.055285573E-2,6.469770273E0
6.512521940E-1,-6.456655502E0,8.880192041E-2,7.116370648E-2,6.457658270E0
6.537601100E-1,-6.444438457E0,8.208259940E-2,6.933116168E-2,6.445334079E0
6.562680270E-1,-6.431610584E0,8.880192041E-2,6.933116168E-2,6.432597244E0
6.587759440E-1,-6.416950226E0,8.696937561E-2,6.810946763E-2,6.417900963E0
6.612838600E-1,-6.400457382E0,8.208259940E-2,7.116370648E-2,6.401379268E0
6.637917250E-1,-6.387629986E0,9.063446522E-2,7.238540053E-2,6.388683048E0
6.662996420E-1,-6.372358799E0,8.147175610E-2,6.933116168E-2,6.373256712E0
6.688075580E-1,-6.358920097E0,8.330429345E-2,7.116370648E-2,6.359863889E0
6.713154750E-1,-6.347924709E0,8.025006205E-2,6.566607952E-2,6.348771552E0
6.738233400E-1,-6.338761806E0,8.330429345E-2,6.933116168E-2,6.339688293E0
6.763312560E-1,-6.332653522E0,8.147175610E-2,7.055285573E-2,6.333570556E0
6.788391730E-1,-6.327766895E0,8.269345015E-2,7.238540053E-2,6.328721177E0
6.813470900E-1,-6.322879791E0,8.758022636E-2,7.421794534E-2,6.323921841E0
6.838549540E-1,-6.314328194E0,8.635853231E-2,7.482878864E-2,6.315362039E0
6.863628710E-1,-6.305165291E0,8.025006205E-2,6.994201243E-2,6.306063852E0
6.888707880E-1,-6.300278664E0,8.086090535E-2,6.872031838E-2,6.301172288E0
6.913787040E-1,-6.292337418E0,8.269345015E-2,6.872031838E-2,6.293255983E0
6.938866210E-1,-6.286839962E0,8.147175610E-2,6.749862432E-2,6.287730148E0
6.963944850E-1,-6.276455402E0,8.269345015E-2,6.688777357E-2,6.277356498E0
6.989024020E-1,-6.266682148E0,7.963921130E-2,6.933116168E-2,6.267571648E0
7.014103190E-1,-6.261795044E0,8.330429345E-2,7.116370648E-2,6.262753472E0
7.039182350E-1,-6.253854275E0,8.330429345E-2,7.055285573E-2,6.254806999E0
7.064261000E-1,-6.244691372E0,8.025006205E-2,7.055285573E-2,6.245605504E0
7.089340170E-1,-6.229420185E0,9.246700257E-2,7.299624383E-2,6.230534041E0
7.114419330E-1,-6.213538170E0,8.208259940E-2,6.810946763E-2,6.214453559E0
7.139498500E-1,-6.198877811E0,7.841751724E-2,6.872031838E-2,6.199754665E0
7.164577670E-1,-6.189104557E0,8.025006205E-2,7.177454978E-2,6.190040943E0
7.189656310E-1,-6.174444199E0,8.758022636E-2,7.116370648E-2,6.175475345E0
7.214735480E-1,-6.156729698E0,8.391514421E-2,6.688777357E-2,6.157664842E0
7.239814650E-1,-6.137793064E0,8.208259940E-2,6.627693027E-2,6.138699690E0
7.264893810E-1,-6.116413593E0,7.902836055E-2,6.994201243E-2,6.117323975E0
7.289972980E-1,-6.095034122E0,7.780666649E-2,6.688777357E-2,6.095897703E0
7.315051630E-1,-6.069989204E0,7.902836055E-2,6.444438547E-2,6.070845699E0
7.340130790E-1,-6.043111801E0,7.841751724E-2,6.994201243E-2,6.044025267E0
7.365209960E-1,-6.017456532E0,7.902836055E-2,6.810946763E-2,6.018360864E0
7.390289130E-1,-5.992411613E0,8.391514421E-2,6.810946763E-2,5.993386154E0
7.415367770E-1,-5.963090897E0,7.719582319E-2,6.749862432E-2,5.963972527E0
7.440446940E-1,-5.934991837E0,8.208259940E-2,6.444438547E-2,5.935909259E0
7.465526100E-1,-5.904449463E0,7.963921130E-2,6.749862432E-2,5.905372294E0
7.490605270E-1,-5.872074604E0,7.719582319E-2,6.444438547E-2,5.872935589E0
7.515684440E-1,-5.839088917E0,7.291989028E-2,6.139015034E-2,5.839866903E0
7.540763080E-1,-5.806103230E0,7.719582319E-2,6.749862432E-2,5.807008694E0
7.565842250E-1,-5.768841743E0,8.086090535E-2,6.566607952E-2,5.769782109E0
7.590921420E-1,-5.732190609E0,7.963921130E-2,6.261184067E-2,5.733085716E0
7.616000580E-1,-5.692485809E0,7.291989028E-2,6.322269142E-2,5.693303883E0
7.641079750E-1,-5.654613018E0,7.536327839E-2,6.444438547E-2,5.655482392E0
7.666158400E-1,-5.615519047E0,7.475243509E-2,6.444438547E-2,5.616386309E0
7.691237560E-1,-5.575813770E0,6.986565888E-2,6.322269142E-2,5.576609859E0
7.716316730E-1,-5.533665180E0,6.803311408E-2,6.261184067E-2,5.534437557E0
7.741395900E-1,-5.492738724E0,7.230904698E-2,6.200099736E-2,5.493564545E0
7.766474540E-1,-5.451200962E0,7.108735293E-2,6.139015034E-2,5.452010096E0
7.791553710E-1,-5.410274029E0,7.291989028E-2,5.955760926E-2,5.411093188E0
7.816632880E-1,-5.368736744E0,6.925480813E-2,6.016845629E-2,5.369520528E0
7.841712040E-1,-5.330863953E0,6.925480813E-2,5.833591148E-2,5.331632938E0
7.866791210E-1,-5.291159153E0,6.681142002E-2,5.894676223E-2,5.291909265E0
7.891869850E-1,-5.252064705E0,6.742226332E-2,6.016845629E-2,5.252842056E0
7.916949020E-1,-5.212970734E0,6.620056927E-2,5.833591148E-2,5.213717432E0
7.942028190E-1,-5.172654629E0,7.414158434E-2,5.772506446E-2,5.173508004E0
7.967107350E-1,-5.131727695E0,6.497887522E-2,5.405998230E-2,5.132423782E0
7.992186000E-1,-5.091412067E0,6.558972597E-2,5.589252338E-2,5.092141281E0
8.017265170E-1,-5.054760933E0,6.314633787E-2,5.894676223E-2,5.055499013E0
8.042344330E-1,-5.015056133E0,6.681142002E-2,5.650337040E-2,5.015819416E0
8.067423500E-1,-4.977183342E0,6.314633787E-2,5.772506446E-2,4.977918607E0
8.092502670E-1,-4.936867714E0,6.314633787E-2,5.772506446E-2,4.937608983E0
8.117581310E-1,-4.897773266E0,6.314633787E-2,5.467082933E-2,4.898485411E0
8.142660480E-1,-4.858068466E0,6.192464009E-2,5.711421743E-2,4.858798814E0
8.167739650E-1,-4.811644077E0,5.887040496E-2,5.772506446E-2,4.812350427E0
8.192818810E-1,-4.751780987E0,6.375718117E-2,6.261184067E-2,4.752621147E0
8.217897980E-1,-4.676646709E0,8.330429345E-2,7.666133344E-2,4.678016782E0
8.242976630E-1,-4.531264782E0,6.070294604E-2,7.727217674E-2,4.532330125E0
8.268055790E-1,-4.261805058E0,4.421006888E-2,6.566607952E-2,4.262540195E0
8.293134960E-1,-3.961268187E0,3.626905754E-2,7.849387079E-2,3.962211804E0
8.318214130E-1,-3.649735928E0,4.909684882E-2,6.994201243E-2,3.650736190E0
8.343292770E-1,-3.336371422E0,5.154023692E-2,3.756710514E-2,3.336980963E0
8.368371940E-1,-2.973528147E0,6.131379306E-2,2.779355086E-2,2.974290084E0
8.393451100E-1,-2.603354692E0,6.864395738E-2,3.512371704E-2,2.604496367E0
8.418530270E-1,-2.244787216E0,5.398362502E-2,2.596100792E-2,2.245586305E0
8.443609440E-1,-1.894160986E0,2.221956849E-2,4.581354558E-3,1.894296845E0
8.468688080E-1,-1.538571477E0,1.450762269E-3,1.007897966E-2,1.538605174E0
8.493767250E-1,-1.192831993E0,-1.382041909E-2,1.557660475E-2,1.193013746E0
8.518846420E-1,-8.703046441E-1,-1.626380906E-2,6.413896102E-3,8.704802256E-1
8.543925580E-1,-5.844281316E-1,-3.436015919E-3,-7.024743594E-3,5.844804481E-1
8.569004750E-1,-3.290939629E-1,1.794363745E-2,-6.413896102E-3,3.296451859E-1
8.594083400E-1,-8.964183182E-2,2.527380548E-2,-7.635590620E-3,9.344905296E-2
8.619162560E-1,1.333174109E-1,8.170082234E-3,-1.924168877E-2,1.349463778E-1
8.644241730E-1,3.348970115E-1,-1.076618303E-2,-1.618745178E-2,3.354608064E-1
8.669320900E-1,5.083776116E-1,-2.542651631E-2,-3.970507067E-3,5.090285539E-1
8.694400060E-1,6.665870547E-1,-2.970244735E-2,-2.748812549E-3,6.672541441E-1
8.719478710E-1,8.192988634E-1,-2.298312820E-2,-8.246437646E-3,8.196626474E-1
8.744557880E-1,9.525399208E-1,-1.320957206E-2,-7.635590620E-3,9.526621100E-1
8.769637040E-1,1.069822669E0,-4.046862945E-3,-1.557660475E-2,1.069943714E0
8.794716210E-1,1.183440208E0,-1.603474026E-3,-2.718270384E-2,1.183753436E0
8.819795380E-1,1.292781830E0,-1.565296017E-2,-2.535016090E-2,1.293125093E0
8.844874020E-1,1.386852384E0,-2.970244735E-2,-1.924168877E-2,1.387303864E0
8.869953190E-1,1.468095064E0,-2.970244735E-2,-1.130067464E-2,1.468438987E0
8.895032350E-1,1.543840051E0,-2.970244735E-2,-1.496575773E-2,1.544198275E0
8.920111520E-1,1.615920067E0,-2.359397523E-2,-1.496575773E-2,1.616161598E0
8.945190170E-1,1.673339725E0,-1.015533600E-2,-2.046338283E-2,1.673495657E0
8.970269330E-1,1.727094293E0,-9.544488043E-3,-2.596100792E-2,1.727315769E0
8.995348500E-1,1.780848861E0,-9.544488043E-3,-2.901524492E-2,1.781110790E0
9.020427670E-1,1.828494906E0,-2.542651631E-2,-2.535016090E-2,1.828847386E0
9.045506830E-1,1.856593847E0,-3.397838026E-2,-1.985253580E-2,1.857010869E0
9.070585480E-1,1.878584385E0,-2.664821222E-2,-1.618745178E-2,1.878843115E0
9.095664650E-1,1.902407408E0,-3.153498843E-2,-1.863084175E-2,1.902759971E0
9.120743810E-1,1.921343684E0,-2.237228118E-2,-2.535016090E-2,1.921641148E0
9.145822980E-1,1.943334222E0,-2.237228118E-2,-2.473931387E-2,1.943620449E0
9.170902150E-1,1.962881327E0,-2.237228118E-2,-2.657185495E-2,1.963188652E0
9.195980790E-1,1.983650088E0,-3.031329438E-2,-2.229592577E-2,1.984006975E0
9.221059960E-1,2.009305716E0,-3.581092134E-2,-2.168507688E-2,2.009741805E0
9.246139130E-1,2.034350395E0,-3.520007432E-2,-1.496575773E-2,2.034709942E0
9.271218290E-1,2.056951761E0,-2.909160033E-2,-1.557660475E-2,2.057216445E0
9.296296940E-1,2.077720642E0,-2.542651631E-2,-2.290677279E-2,2.078002477E0
9.321376100E-1,2.102765322E0,-1.992889121E-2,-2.840439789E-2,2.103051585E0
9.346455270E-1,2.125977516E0,-2.176143415E-2,-2.718270384E-2,2.126262650E0
9.371534440E-1,2.148578882E0,-2.481566928E-2,-2.718270384E-2,2.148894118E0
9.396613600E-1,2.168126106E0,-3.275668249E-2,-2.290677279E-2,2.168494531E0
9.421692250E-1,2.191338301E0,-4.008685052E-2,-2.046338283E-2,2.191800459E0
9.446771420E-1,2.212717772E0,-3.397838026E-2,-1.740914769E-2,2.213047118E0
9.471850580E-1,2.232875824E0,-3.214583546E-2,-2.535016090E-2,2.233251090E0
9.496929750E-1,2.257309675E0,-2.725905925E-2,-2.535016090E-2,2.257616588E0
9.522008920E-1,2.278689384E0,-2.237228118E-2,-2.901524492E-2,2.278983921E0
9.547087560E-1,2.301901579E0,-2.176143415E-2,-2.840439789E-2,2.302179673E0
9.572166730E-1,2.326946259E0,-3.458922729E-2,-2.840439789E-2,2.327376659E0
9.597245900E-1,2.348936796E0,-3.214583546E-2,-2.168507688E-2,2.349256834E0
9.622325060E-1,2.369094849E0,-3.214583546E-2,-2.290677279E-2,2.369423659E0
9.647404230E-1,2.391695976E0,-3.703261539E-2,-2.351761982E-2,2.392098271E0
9.672482880E-1,2.416130066E0,-3.397838026E-2,-2.779355086E-2,2.416528814E0
9.697562040E-1,2.436898708E0,-2.664821222E-2,-2.962609194E-2,2.437224476E0
9.722641210E-1,2.460721731E0,-2.848075330E-2,-3.023693897E-2,2.461072300E0
9.747720380E-1,2.484544754E0,-3.153498843E-2,-2.718270384E-2,2.484893557E0
9.772799540E-1,2.507756948E0,-3.520007432E-2,-2.473931387E-2,2.508125992E0
9.797878190E-1,2.532801867E0,-3.764346242E-2,-2.229592577E-2,2.533179708E0
9.822957350E-1,2.554181576E0,-4.069769755E-2,-2.596100792E-2,2.554637704E0
9.848036520E-1,2.575561047E0,-3.336753324E-2,-2.657185495E-2,2.575914238E0
9.873115690E-1,2.601827621E0,-3.520007432E-2,-3.206948191E-2,2.602263336E0
9.898194330E-1,2.625039816E0,-3.275668249E-2,-3.084778599E-2,2.625425417E0
9.923273500E-1,2.646419287E0,-2.848075330E-2,-3.145863488E-2,2.646759498E0
9.948352670E-1,2.670242548E0,-3.275668249E-2,-2.718270384E-2,2.670581803E0
9.973431830E-1,2.693454742E0,-3.764346242E-2,-2.473931387E-2,2.693831382E0
9.998511000E-1,2.715445042E0,-3.825430945E-2,-2.657185495E-2,2.715844478E0
1.002358965E0,2.739268064E0,-3.764346242E-2,-2.718270384E-2,2.739661559E0
1.004866881E0,2.763091326E0,-3.642176837E-2,-2.962609194E-2,2.763490171E0
1.007374798E0,2.786303520E0,-3.581092134E-2,-3.573456407E-2,2.786762761E0
1.009882715E0,2.808293819E0,-3.214583546E-2,-3.206948191E-2,2.808660888E0
1.012390631E0,2.830284357E0,-3.581092134E-2,-3.084778599E-2,2.830678991E0
1.014898496E0,2.857161760E0,-4.130854458E-2,-2.779355086E-2,2.857595528E0
1.017406413E0,2.880984783E0,-3.886515647E-2,-2.657185495E-2,2.881369446E0
1.019914329E0,2.905418634E0,-3.703261539E-2,-3.084778599E-2,2.905818377E0
1.022422246E0,2.931074142E0,-4.314108938E-2,-3.206948191E-2,2.931567027E0
1.024930163E0,2.955507994E0,-3.581092134E-2,-3.390202299E-2,2.955919361E0
1.027438027E0,2.980552912E0,-3.520007432E-2,-3.695625812E-2,2.980989847E0
1.029945944E0,3.008040905E0,-3.825430945E-2,-3.512371704E-2,3.008489181E0
1.032453860E0,3.031253099E0,-3.764346242E-2,-3.206948191E-2,3.031656451E0
1.034961777E0,3.055686951E0,-3.764346242E-2,-3.023693897E-2,3.056068396E0
1.037469694E0,3.080731869E0,-4.741701856E-2,-2.840439789E-2,3.081227682E0
1.039977558E0,3.102722406E0,-4.375193641E-2,-3.268032894E-2,3.103202953E0
1.042485475E0,3.126545429E0,-4.130854458E-2,-3.390202299E-2,3.127002089E0
1.044993392E0,3.148535728E0,-4.008685052E-2,-3.756710514E-2,3.149015001E0
1.047501308E0,3.172358990E0,-4.191939160E-2,-3.695625812E-2,3.172851172E0
1.050009225E0,3.194349289E0,-3.764346242E-2,-3.695625812E-2,3.194784840E0
1.052517090E0,3.217561483E0,-4.130854458E-2,-3.390202299E-2,3.218005227E0
1.055025006E0,3.242606401E0,-4.497363046E-2,-3.206948191E-2,3.243076834E0
1.057532923E0,3.265818596E0,-4.741701856E-2,-3.329117596E-2,3.266332466E0
1.060040840E0,3.288419962E0,-3.947600350E-2,-3.634541109E-2,3.288857733E0
1.062548756E0,3.312242985E0,-4.069769755E-2,-3.878879920E-2,3.312720100E0
1.065056621E0,3.334844351E0,-4.069769755E-2,-3.878879920E-2,3.335318233E0
1.067564538E0,3.358056545E0,-4.497363046E-2,-3.939964995E-2,3.358588799E0
1.070072454E0,3.380046844E0,-4.314108938E-2,-3.756710514E-2,3.380530892E0
1.072580371E0,3.403259039E0,-4.497363046E-2,-3.329117596E-2,3.403718998E0
1.075088288E0,3.424638748E0,-4.680617154E-2,-3.329117596E-2,3.425120388E0
1.077596152E0,3.450294495E0,-4.436278343E-2,-3.512371704E-2,3.450758443E0
1.080104069E0,3.471673965E0,-4.314108938E-2,-4.001049697E-2,3.472172535E0
1.082611985E0,3.495496988E0,-4.619532451E-2,-4.367557913E-2,3.496075051E0
1.085119902E0,3.518098354E0,-3.886515647E-2,-4.306473210E-2,3.518576573E0
1.087627767E0,3.542532206E0,-4.924955964E-2,-3.939964995E-2,3.543093603E0
1.090135683E0,3.563988447E0,-4.741701856E-2,-4.001049697E-2,3.564528421E0
1.092643600E0,3.587811470E0,-4.619532451E-2,-3.573456407E-2,3.588286793E0
1.095151517E0,3.612856150E0,-4.558447748E-2,-3.573456407E-2,3.613320421E0
1.097659433E0,3.633625031E0,-4.741701856E-2,-3.634541109E-2,3.634116155E0
1.100167298E0,3.657448053E0,-4.680617154E-2,-4.123219103E-2,3.657979931E0
1.102675215E0,3.684936047E0,-4.924955964E-2,-4.184303805E-2,3.685502683E0
1.105183131E0,3.706926584E0,-4.680617154E-2,-4.428642616E-2,3.707486589E0
1.107691048E0,3.728306293E0,-5.169294775E-2,-4.123219103E-2,3.728892607E0
1.110198965E0,3.749686003E0,-4.863871261E-2,-3.878879920E-2,3.750202050E0
1.112706829E0,3.771065474E0,-5.108210072E-2,-3.817795217E-2,3.771604664E0
1.115214746E0,3.794277668E0,-5.230379477E-2,-4.001049697E-2,3.794849081E0
1.117722663E0,3.814435720E0,-5.230379477E-2,-4.428642616E-2,3.815051355E0
1.120230579E0,3.838258743E0,-5.291464552E-2,-4.428642616E-2,3.838878928E0
1.122738496E0,3.860860109E0,-4.986040667E-2,-4.611896724E-2,3.861457471E0
1.125246360E0,3.880407095E0,-5.047125369E-2,-4.367557913E-2,3.880981078E0
1.127754277E0,3.899954319E0,-5.413633958E-2,-4.184303805E-2,3.900554483E0
1.130262194E0,3.917057991E0,-5.169294775E-2,-3.939964995E-2,3.917597197E0
1.132770110E0,3.937826872E0,-5.047125369E-2,-4.306473210E-2,3.938385760E0
1.135278027E0,3.962260723E0,-5.291464552E-2,-4.428642616E-2,3.962861502E0
1.137785892E0,3.990359783E0,-5.474718660E-2,-4.611896724E-2,3.991001806E0
1.140293808E0,4.015404224E0,-5.291464552E-2,-4.917320609E-2,4.016053915E0
1.142801725E0,4.034340858E0,-5.108210072E-2,-4.917320609E-2,4.034963884E0
1.145309642E0,4.053277016E0,-5.291464552E-2,-4.734066129E-2,4.053898823E0
1.147817558E0,4.072824001E0,-6.024480984E-2,-4.123219103E-2,4.073478228E0
1.150325423E0,4.089927673E0,-5.535803363E-2,-3.939964995E-2,4.090492051E0
1.152833340E0,4.108253002E0,-5.780142173E-2,-4.428642616E-2,4.108898273E0
1.155341256E0,4.126578808E0,-5.413633958E-2,-4.734066129E-2,4.127205415E0
1.157849173E0,4.147958279E0,-5.230379477E-2,-4.734066129E-2,4.148558148E0
1.160357090E0,4.168726921E0,-4.986040667E-2,-4.672981426E-2,4.169286975E0
1.162864954E0,4.187052727E0,-5.535803363E-2,-4.978405312E-2,4.187714592E0
1.165372871E0,4.205378056E0,-5.657972768E-2,-4.611896724E-2,4.206011509E0
1.167880788E0,4.224925041E0,-5.596888065E-2,-4.428642616E-2,4.225527826E0
1.170388704E0,4.242639542E0,-5.535803363E-2,-4.672981426E-2,4.243258002E0
1.172896621E0,4.260354042E0,-5.657972768E-2,-4.672981426E-2,4.260985978E0
1.175404485E0,4.279290676E0,-5.657972768E-2,-5.100574717E-2,4.279968638E0
1.177912402E0,4.300059319E0,-5.780142173E-2,-4.917320609E-2,4.300728909E0
1.180420319E0,4.314719677E0,-5.352549255E-2,-4.917320609E-2,4.315331838E0
1.182928235E0,4.330601692E0,-5.352549255E-2,-4.917320609E-2,4.331211609E0
1.185436152E0,4.346483707E0,-6.024480984E-2,-5.039490014E-2,4.347193313E0
1.187944017E0,4.365419865E0,-6.085565686E-2,-4.611896724E-2,4.366087604E0
1.190451933E0,4.380691051E0,-5.841226876E-2,-4.978405312E-2,4.381363319E0
1.192959850E0,4.395351410E0,-5.780142173E-2,-5.161659420E-2,4.396034496E0
1.195467767E0,4.414898396E0,-5.535803363E-2,-5.222744122E-2,4.415554332E0
1.197975683E0,4.431391239E0,-5.596888065E-2,-4.734066129E-2,4.431997514E0
1.200483548E0,4.446051598E0,-5.719057471E-2,-5.100574717E-2,4.446711949E0
1.202991465E0,4.466820717E0,-6.085565686E-2,-5.161659420E-2,4.467533436E0
1.205499381E0,4.485756874E0,-6.268820167E-2,-4.978405312E-2,4.486471107E0
1.208007298E0,4.507136345E0,-5.902311578E-2,-4.611896724E-2,4.507758725E0
1.210515215E0,4.525462151E0,-5.841226876E-2,-4.795150831E-2,4.526093129E0
1.213023079E0,4.546230793E0,-6.329904497E-2,-4.856235534E-2,4.546930777E0
1.215530996E0,4.563945293E0,-6.085565686E-2,-4.917320609E-2,4.564615872E0
1.218038913E0,4.580438137E0,-5.841226876E-2,-5.100574717E-2,4.581094532E0
1.220546829E0,4.594487667E0,-6.398624927E-2,-5.100574717E-2,4.595216290E0
1.223054746E0,4.610980511E0,-6.268820167E-2,-4.795150831E-2,4.611655931E0
1.225562610E0,4.626251698E0,-5.902311578E-2,-4.672981426E-2,4.626864184E0
1.228070527E0,4.642744541E0,-6.207735091E-2,-4.978405312E-2,4.643426421E0
1.230578444E0,4.658626556E0,-6.268820167E-2,-5.161659420E-2,4.659334231E0
1.233086360E0,4.672065258E0,-5.963396281E-2,-5.283828825E-2,4.672744576E0
1.235594277E0,4.687336445E0,-6.520794332E-2,-5.161659420E-2,4.688074156E0
1.238102142E0,4.700775146E0,-6.085565686E-2,-5.100574717E-2,4.701445732E0
1.240610058E0,4.715435505E0,-6.398624927E-2,-5.711421743E-2,4.716215461E0
1.243117975E0,4.726430893E0,-6.329904497E-2,-6.016845629E-2,4.727237671E0
1.245625892E0,4.716657162E0,-7.070557028E-2,-6.749862432E-2,4.717669989E0
1.248133808E0,4.672676086E0,-5.169294775E-2,-5.528167635E-2,4.673288995E0
1.250641725E0,4.596320152E0,-4.986040667E-2,-4.672981426E-2,4.596828111E0
1.253149590E0,4.512634277E0,-8.597674966E-2,-7.177454978E-2,4.514023893E0
1.255657506E0,4.395962238E0,-1.537808031E-1,-8.032641560E-2,4.399384601E0
1.258165423E0,4.297005177E0,-2.603736520E-2,-5.528167635E-2,4.297439644E0
1.260673340E0,4.128411293E0,-3.947600350E-2,-2.901524492E-2,4.128701980E0
1.263181256E0,3.964093208E0,-1.171299592E-1,-3.939964995E-2,3.966019002E0
1.265689121E0,3.829096079E0,-2.237228118E-2,-4.611896724E-2,3.829439157E0
1.268197038E0,3.636679173E0,-6.146650389E-2,-3.634541109E-2,3.637380173E0
1.270704954E0,3.384322882E0,-6.398624927E-2,-5.894676223E-2,3.385440936E0
1.273212871E0,3.122880220E0,-7.070557028E-2,-7.299624383E-2,3.124533341E0
1.275720735E0,2.839447021E0,-7.009471953E-2,-4.245388508E-2,2.840629330E0
1.278228652E0,2.505313635E0,-8.933641016E-3,-2.473931387E-2,2.505451706E0
1.280736569E0,2.166293383E0,-1.809635013E-2,-1.924168877E-2,2.166454417E0
1.283244485E0,1.857204676E0,-2.420482226E-2,-1.618745178E-2,1.857432937E0
1.285752402E0,1.535899043E0,-9.544488043E-3,2.137965523E-3,1.535930187E0
1.288260267E0,1.203598142E0,-7.711946499E-3,-3.359660041E-3,1.203627537E0
1.290768183E0,9.024504423E-1,-2.298312820E-2,-2.168507688E-2,9.030034704E-1
1.293276100E0,6.311579347E-1,-3.031329438E-2,-1.924168877E-2,6.321783585E-1
1.295784017E0,3.538332880E-1,-2.214321401E-3,-4.581354558E-3,3.538698740E-1
1.298291933E0,8.628217876E-2,2.672456671E-3,3.054236295E-4,8.632409675E-2
1.300799798E0,-1.378987730E-1,-4.657710437E-3,1.252236869E-2,1.385444895E-1
1.303307715E0,-3.425326049E-1,1.000262424E-2,2.351761982E-2,3.434846669E-1
1.305815631E0,-5.447230339E-1,1.977618039E-2,2.290677279E-2,5.455630131E-1
1.308323548E0,-7.218687534E-1,8.399150101E-4,1.252236869E-2,7.219778476E-1
1.310831465E0,-8.660287261E-1,1.672194339E-2,5.803049076E-3,8.662095896E-1
1.313339329E0,-1.018740535E0,2.649549954E-2,1.007897966E-2,1.019134866E0
1.315847246E0,-1.171452284E0,2.832804248E-2,1.374406368E-2,1.171875348E0
1.318355163E0,-1.300951958E0,2.160872146E-2,1.618745178E-2,1.301232096E0
1.320863079E0,-1.421899676E0,2.710634656E-2,2.473931387E-2,1.422373185E0
1.323370996E0,-1.547123432E0,2.954973653E-2,2.962609194E-2,1.547689183E0
1.325878860E0,-1.660740972E0,2.954973653E-2,2.657185495E-2,1.661216369E0
1.328386777E0,-1.757865667E0,1.977618039E-2,1.801999472E-2,1.758069260E0
1.330894694E0,-1.857510209E0,3.260397166E-2,1.618745178E-2,1.857866849E0
1.333402610E0,-1.961965084E0,3.565821052E-2,2.107422985E-2,1.962402258E0
1.335910527E0,-2.055424690E0,3.016058356E-2,2.229592577E-2,2.055766871E0
1.338418392E0,-2.147051811E0,3.260397166E-2,2.901524492E-2,2.147495374E0
1.340926308E0,-2.243565559E0,3.077143058E-2,3.329117596E-2,2.244023530E0
1.343434225E0,-2.343133688E0,2.710634656E-2,3.206948191E-2,2.343509907E0
1.345942142E0,-2.436593294E0,3.199312463E-2,2.473931387E-2,2.436928902E0
1.348450058E0,-2.533107281E0,4.176668078E-2,2.351761982E-2,2.533560741E0
1.350957975E0,-2.640005589E0,4.726430774E-2,2.535016090E-2,2.640550331E0
1.353465840E0,-2.746903658E0,4.482091591E-2,3.084778599E-2,2.747442485E0
1.355973756E0,-2.846471786E0,4.787515476E-2,3.329117596E-2,2.847069013E0
1.358481673E0,-2.952759266E0,4.421006888E-2,3.756710514E-2,2.953329155E0
1.360989590E0,-3.062711716E0,3.749075159E-2,4.001049697E-2,3.063202483E0
1.363497506E0,-3.176329374E0,4.176668078E-2,3.756710514E-2,3.176826095E0
1.366005371E0,-3.289947033E0,4.237752780E-2,3.268032894E-2,3.290382248E0
1.368513288E0,-3.409062147E0,4.848600179E-2,3.634541109E-2,3.409600652E0
1.371021204E0,-3.530009985E0,4.787515476E-2,3.817795217E-2,3.530541046E0
1.373529121E0,-3.652179480E0,5.398362502E-2,4.123219103E-2,3.652811147E0
1.376037038E0,-3.777403116E0,5.092938989E-2,4.489727318E-2,3.778013217E0
1.378544902E0,-3.909346104E0,5.520532280E-2,4.734066129E-2,3.910022471E0
1.381052819E0,-4.038234711E0,5.398362502E-2,4.550812021E-2,4.038851916E0
1.383560735E0,-4.176286221E0,5.764871091E-2,4.123219103E-2,4.176887605E0
1.386068652E0,-4.318613529E0,5.887040496E-2,4.245388508E-2,4.319223411E0
1.388576569E0,-4.465293407E0,6.436803192E-2,4.489727318E-2,4.465983007E0
1.391084485E0,-4.610675335E0,6.192464009E-2,4.978405312E-2,4.611359903E0
1.393592350E0,-4.754835129E0,6.253548712E-2,5.711421743E-2,4.755589324E0
1.396100267E0,-4.901438236E0,6.253548712E-2,5.589252338E-2,4.902155796E0
1.398608183E0,-5.055982590E0,6.681142002E-2,5.528167635E-2,5.056726192E0
1.401116100E0,-5.212970734E0,6.925480813E-2,5.528167635E-2,5.213723829E0
1.403624017E0,-5.372401714E0,7.475243509E-2,5.711421743E-2,5.373225301E0
1.406131881E0,-5.519615650E0,7.658497244E-2,5.833591148E-2,5.520455168E0
1.408639798E0,-5.655834675E0,7.841751724E-2,6.444438547E-2,5.656745377E0
1.411147715E0,-5.778614998E0,7.902836055E-2,6.994201243E-2,5.779578588E0
1.413655631E0,-5.898341179E0,8.147175610E-2,7.360709459E-2,5.899363043E0
1.416163496E0,-6.015623569E0,8.147175610E-2,7.238540053E-2,6.016610692E0
1.418671413E0,-6.128630638E0,8.391514421E-2,6.933116168E-2,6.129597218E0
1.421179329E0,-6.240415573E0,8.513683826E-2,6.383354217E-2,6.241322739E0
1.423687246E0,-6.346703053E0,9.063446522E-2,6.383354217E-2,6.347671145E0
1.426195163E0,-6.449325562E0,8.941277117E-2,7.177454978E-2,6.450344675E0
1.428703079E0,-6.553169250E0,8.758022636E-2,8.276980370E-2,6.554277104E0
1.431210944E0,-6.653959274E0,9.185615927E-2,8.460234851E-2,6.655131038E0
1.433718860E0,-6.749862194E0,9.552124143E-2,8.215895295E-2,6.751037997E0
1.436226777E0,-6.839656830E0,9.063446522E-2,7.605048269E-2,6.840680071E0
1.438734694E0,-6.930062294E0,9.246700257E-2,7.543963939E-2,6.931089718E0
1.441242610E0,-7.016802311E0,1.028514057E-1,7.238540053E-2,7.017929376E0
1.443750475E0,-7.099267006E0,9.552124143E-2,7.421794534E-2,7.100297503E0
1.446258392E0,-7.176920891E0,9.674293548E-2,7.971556485E-2,7.178015550E0
1.448766308E0,-7.255720139E0,9.735377878E-2,9.132166207E-2,7.256947852E0
1.451274225E0,-7.325967312E0,1.004080176E-1,9.254335612E-2,7.327239801E0
1.453782142E0,-7.393160820E0,9.429954737E-2,8.521319181E-2,7.394253215E0
1.456290006E0,-7.449969292E0,1.004080176E-1,8.399149776E-2,7.451119298E0
1.458797923E0,-7.500059128E0,1.004080176E-1,8.338065445E-2,7.501194640E0
1.461305840E0,-7.556256771E0,1.016297117E-1,7.971556485E-2,7.557360621E0
1.463813756E0,-7.614287376E0,1.004080176E-1,8.154810965E-2,7.615386012E0
1.466321673E0,-7.664376736E0,1.016297117E-1,9.071081877E-2,7.665587244E0
1.468829538E0,-7.707746983E0,9.918632358E-2,9.437590092E-2,7.708962854E0
1.471337454E0,-7.750506401E0,1.046839505E-1,9.498675168E-2,7.751795320E0
1.473845371E0,-7.791433334E0,1.022405624E-1,8.276980370E-2,7.792543704E0
1.476353288E0,-7.821975708E0,9.918632358E-2,8.276980370E-2,7.823042422E0
1.478861204E0,-7.852518082E0,1.059056446E-1,8.704573661E-2,7.853714611E0
1.481369069E0,-7.884892941E0,1.107924208E-1,9.009996802E-2,7.886186001E0
1.483876985E0,-7.911159039E0,1.034622565E-1,9.254335612E-2,7.912376763E0
1.486384902E0,-7.932538986E0,1.010188684E-1,9.376505762E-2,7.933736287E0
1.488892819E0,-7.951475143E0,9.979717433E-2,9.559759498E-2,7.952675986E0
1.491400735E0,-7.966135502E0,1.040730998E-1,9.193251282E-2,7.967345708E0
1.493908652E0,-7.977130890E0,1.034622565E-1,9.071081877E-2,7.978317500E0
1.496416517E0,-7.982017517E0,1.120141149E-1,8.704573661E-2,7.983278009E0
1.498924433E0,-7.982628345E0,1.132358089E-1,8.887827396E-2,7.983926164E0
1.501432350E0,-7.983239174E0,1.065164879E-1,8.948912472E-2,7.984451251E0
1.503940267E0,-7.982017517E0,9.979717433E-2,8.887827396E-2,7.983136130E0
1.506448183E0,-7.973465443E0,1.059056446E-1,9.437590092E-2,7.974727204E0
1.508956048E0,-7.961859703E0,9.674293548E-2,9.009996802E-2,7.962957185E0
1.511463965E0,-7.952696800E0,1.004080176E-1,9.254335612E-2,7.953869023E0
1.513971881E0,-7.940479755E0,1.083490327E-1,9.193251282E-2,7.941751057E0
1.516479798E0,-7.928262711E0,1.107924208E-1,8.704573661E-2,7.929514583E0
1.518987715E0,-7.908715725E0,1.040730998E-1,8.887827396E-2,7.909899808E0
1.521495579E0,-7.891001225E0,1.034622565E-1,9.193251282E-2,7.892214920E0
1.524003496E0,-7.870843410E0,1.046839505E-1,9.132166207E-2,7.872069256E0
1.526511413E0,-7.851295948E0,9.429954737E-2,9.071081877E-2,7.852386193E0
1.529019329E0,-7.831748962E0,1.004080176E-1,8.948912472E-2,7.832903796E0
1.531527246E0,-7.807315350E0,1.052947938E-1,9.193251282E-2,7.808566549E0
1.534035163E0,-7.781048775E0,1.016297117E-1,8.948912472E-2,7.782226991E0
1.536543027E0,-7.757836342E0,1.052947938E-1,9.009996802E-2,7.759074024E0
1.539050944E0,-7.729737759E0,1.059056446E-1,8.521319181E-2,7.730932875E0
1.541558860E0,-7.700417042E0,9.368869662E-2,8.460234851E-2,7.701451665E0
1.544066777E0,-7.678426266E0,9.857547283E-2,9.009996802E-2,7.679587557E0
1.546574642E0,-7.654603481E0,1.016297117E-1,9.071081877E-2,7.655815535E0
1.549082558E0,-7.625893593E0,1.016297117E-1,8.826743066E-2,7.627081541E0
1.551590475E0,-7.597183704E0,9.979717433E-2,8.521319181E-2,7.598316985E0
1.554098392E0,-7.572749615E0,9.429954737E-2,8.643488586E-2,7.573829951E0
1.556606308E0,-7.540374756E0,9.918632358E-2,9.071081877E-2,7.541572637E0
1.559114225E0,-7.511054039E0,9.674293548E-2,8.948912472E-2,7.512210079E0
1.561622090E0,-7.478068352E0,9.307785332E-2,8.460234851E-2,7.479126107E0
1.564130006E0,-7.448136806E0,1.004080176E-1,8.460234851E-2,7.449294008E0
1.566637923E0,-7.404767036E0,1.046839505E-1,8.643488586E-2,7.406011382E0
1.569145840E0,-7.360785961E0,9.735377878E-2,8.704573661E-2,7.361944355E0
1.571653756E0,-7.321691513E0,9.613208473E-2,9.193251282E-2,7.322899670E0
1.574161621E0,-7.272212982E0,9.429954737E-2,8.460234851E-2,7.273316411E0
1.576669538E0,-7.215404034E0,9.674293548E-2,8.215895295E-2,7.216520260E0
1.579177454E0,-7.159817219E0,8.941277117E-2,8.154810965E-2,7.160839849E0
1.581685371E0,-7.105986118E0,8.513683826E-2,8.338065445E-2,7.106985249E0
1.584193288E0,-7.049787998E0,9.246700257E-2,8.582404256E-2,7.050916730E0
1.586701204E0,-6.984427452E0,9.307785332E-2,8.276980370E-2,6.985538001E0
1.589209069E0,-6.923953533E0,9.002361447E-2,7.849387079E-2,6.924983615E0
1.591716985E0,-6.867145061E0,9.674293548E-2,8.093725890E-2,6.868303381E0
1.594224902E0,-6.799340725E0,9.368869662E-2,8.215895295E-2,6.800482480E0
1.596732819E0,-6.732147694E0,9.063446522E-2,7.849387079E-2,6.733215314E0
1.599240735E0,-6.669841290E0,8.452598751E-2,7.666133344E-2,6.670817373E0
1.601748600E0,-6.609978199E0,8.330429345E-2,7.421794534E-2,6.610919732E0
1.604256517E0,-6.542174339E0,8.269345015E-2,7.910472155E-2,6.543175135E0
1.606764433E0,-6.476813316E0,8.513683826E-2,7.849387079E-2,6.477848432E0
1.609272350E0,-6.409620285E0,7.902836055E-2,7.238540053E-2,6.410516151E0
1.611780267E0,-6.338150978E0,8.819106966E-2,7.421794534E-2,6.339198986E0
1.614288183E0,-6.260573387E0,9.002361447E-2,7.360709459E-2,6.261653247E0
1.616796048E0,-6.179330826E0,8.025006205E-2,7.543963939E-2,6.180312344E0
1.619303965E0,-6.101142406E0,8.269345015E-2,7.055285573E-2,6.102110666E0
1.621811881E0,-6.016845703E0,7.536327839E-2,6.994201243E-2,6.017724132E0
1.624319798E0,-5.927661896E0,7.047650218E-2,6.994201243E-2,5.928493432E0
1.626827663E0,-5.843975544E0,7.353074104E-2,7.055285573E-2,5.844863953E0
1.629335579E0,-5.758457184E0,8.025006205E-2,6.566607952E-2,5.759390701E0
1.631843496E0,-5.666830063E0,7.536327839E-2,6.322269142E-2,5.667683803E0
1.634351413E0,-5.578257084E0,7.841751724E-2,6.505523622E-2,5.579187538E0
1.636859329E0,-5.494571209E0,7.475243509E-2,6.688777357E-2,5.495486755E0
1.639367246E0,-5.407830715E0,7.169819623E-2,6.566607952E-2,5.408704624E0
1.641875110E0,-5.320479393E0,6.925480813E-2,6.016845629E-2,5.321270285E0
1.644383027E0,-5.231296062E0,6.864395738E-2,6.016845629E-2,5.232092385E0
1.646890944E0,-5.148220539E0,6.864395738E-2,6.322269142E-2,5.149066306E0
1.649398860E0,-5.076751709E0,6.925480813E-2,5.833591148E-2,5.077559180E0
1.651906777E0,-5.009558201E0,7.108735293E-2,5.405998230E-2,5.010354205E0
1.654414642E0,-4.939311028E0,6.192464009E-2,5.772506446E-2,4.940036465E0
1.656922558E0,-4.855624676E0,6.192464009E-2,5.894676223E-2,4.856377289E0
1.659430475E0,-4.772549629E0,5.703786388E-2,5.405998230E-2,4.773196598E0
1.661938392E0,-4.701691151E0,5.581616983E-2,5.100574717E-2,4.702299087E0
1.664446308E0,-4.641828537E0,5.092938989E-2,5.039490014E-2,4.642381459E0
1.666954173E0,-4.570359230E0,6.375718117E-2,6.077930331E-2,4.571208002E0
1.669462090E0,-4.481175423E0,6.314633787E-2,5.894676223E-2,4.482007960E0
1.671970006E0,-4.396191597E0,5.948125198E-2,5.650337040E-2,4.396957040E0
1.674477923E0,-4.321057320E0,7.353074104E-2,6.016845629E-2,4.322101731E0
1.676985840E0,-4.248977184E0,5.948125198E-2,5.528167635E-2,4.249753075E0
1.679493756E0,-4.171399593E0,4.909684882E-2,4.367557913E-2,4.171917140E0
1.682001621E0,-4.082215786E0,4.665346071E-2,3.939964995E-2,4.082672483E0
1.684509538E0,-3.991810560E0,4.604261369E-2,4.428642616E-2,3.992321725E0
1.687017454E0,-3.907513618E0,4.421006888E-2,4.611896724E-2,3.908035845E0
1.689525371E0,-3.821384192E0,5.092938989E-2,4.428642616E-2,3.821980145E0
1.692033288E0,-3.736476421E0,6.131379306E-2,4.672981426E-2,3.737271612E0
1.694541152E0,-3.655233622E0,5.703786388E-2,4.489727318E-2,3.655954309E0
1.697049069E0,-3.580099344E0,5.154023692E-2,4.245388508E-2,3.580722000E0
1.699556985E0,-3.508630276E0,4.421006888E-2,3.573456407E-2,3.509090751E0
1.702064902E0,-3.438993692E0,3.687990457E-2,3.634541109E-2,3.439383481E0
1.704572819E0,-3.374243975E0,3.749075159E-2,3.756710514E-2,3.374661353E0
1.707080735E0,-3.312548399E0,3.932329267E-2,3.817795217E-2,3.313001777E0
1.709588600E0,-3.250852823E0,3.932329267E-2,4.062134400E-2,3.251344413E0
1.712096517E0,-3.194654703E0,4.421006888E-2,3.878879920E-2,3.195196046E0
1.714604433E0,-3.140900135E0,4.115583375E-2,3.695625812E-2,3.141387150E0
1.717112350E0,-3.092032433E0,3.932329267E-2,3.329117596E-2,3.092461671E0
1.719620267E0,-3.044386387E0,3.565821052E-2,3.268032894E-2,3.044770596E0
1.722128131E0,-3.007124662E0,3.382566571E-2,3.329117596E-2,3.007499163E0
1.724636048E0,-2.970473766E0,3.199312463E-2,3.451287001E-2,2.970846528E0
1.727143965E0,-2.944818258E0,3.810159862E-2,3.206948191E-2,2.945239338E0
1.729651881E0,-2.923438549E0,3.993413970E-2,3.329117596E-2,2.923900817E0
1.732159798E0,-2.908778191E0,3.932329267E-2,3.084778599E-2,2.909207533E0
1.734667663E0,-2.898393869E0,3.810159862E-2,3.023693897E-2,2.898801998E0
1.737175579E0,-2.894118071E0,3.443651274E-2,3.023693897E-2,2.894480878E0
1.739683496E0,-2.900226355E0,3.138227761E-2,3.023693897E-2,2.900553745E0
1.742191413E0,-2.916719198E0,3.199312463E-2,3.390202299E-2,2.917091666E0
1.744699329E0,-2.939931393E0,3.626905754E-2,3.329117596E-2,2.940343575E0
1.747207194E0,-2.963754654E0,3.565821052E-2,3.451287001E-2,2.964170085E0
1.749715110E0,-2.986966848E0,3.871244565E-2,3.512371704E-2,2.987424189E0
1.752223027E0,-3.013233185E0,3.993413970E-2,3.756710514E-2,3.013731947E0
1.754730944E0,-3.041943073E0,4.054498672E-2,3.817795217E-2,3.042452812E0
1.757238860E0,-3.071263552E0,3.932329267E-2,3.695625812E-2,3.071737601E0
1.759746725E0,-3.104860306E0,4.115583375E-2,3.390202299E-2,3.105318127E0
1.762254642E0,-3.140900135E0,3.993413970E-2,3.512371704E-2,3.141350358E0
1.764762558E0,-3.180605412E0,4.543176666E-2,3.695625812E-2,3.181144542E0
1.767270475E0,-3.223975420E0,4.115583375E-2,3.756710514E-2,3.224456946E0
1.769778392E0,-3.275286674E0,3.810159862E-2,3.756710514E-2,3.275723709E0
1.772286308E0,-3.330873728E0,3.810159862E-2,3.817795217E-2,3.331310415E0
1.774794173E0,-3.366913795E0,5.337277800E-2,4.245388508E-2,3.367604414E0
1.777302090E0,-3.384017467E0,4.970769584E-2,4.428642616E-2,3.384672268E0
1.779810006E0,-3.406008005E0,5.642701685E-2,5.344913527E-2,3.406894678E0
1.782317923E0,-3.442047834E0,6.009209901E-2,5.222744122E-2,3.442968495E0
1.784825840E0,-3.472590208E0,5.337277800E-2,4.428642616E-2,3.473282697E0
1.787333704E0,-3.495802402E0,4.604261369E-2,3.634541109E-2,3.496294517E0
1.789841621E0,-3.511684418E0,2.893888950E-2,3.695625812E-2,3.511998103E0
1.792349538E0,-3.493359089E0,3.077143058E-2,3.451287001E-2,3.493665087E0
1.794857454E0,-3.465260029E0,2.954973653E-2,3.145863488E-2,3.465528805E0
1.797365371E0,-3.449378014E0,3.504735976E-2,3.512371704E-2,3.449734870E0
1.799873288E0,-3.456708193E0,4.726430774E-2,4.367557913E-2,3.457307189E0
1.802381152E0,-3.456097364E0,6.558972597E-2,4.917320609E-2,3.457069425E0
1.804889069E0,-3.446934700E0,6.375718117E-2,4.917320609E-2,3.447874970E0
1.807396985E0,-3.440826178E0,5.215108395E-2,4.856235534E-2,3.441564008E0
1.809904902E0,-3.444491386E0,4.421006888E-2,4.245388508E-2,3.445036687E0
1.812412819E0,-3.442047834E0,3.810159862E-2,3.268032894E-2,3.442413838E0
1.814920683E0,-3.440215349E0,3.077143058E-2,2.596100792E-2,3.440450916E0
1.817428600E0,-3.435939550E0,2.710634656E-2,2.962609194E-2,3.436174188E0
1.819936517E0,-3.435328722E0,3.993413970E-2,3.695625812E-2,3.435759585E0
1.822444433E0,-3.435328722E0,5.154023692E-2,4.306473210E-2,3.435985215E0
1.824952350E0,-3.433495998E0,5.337277800E-2,4.795150831E-2,3.434245590E0
1.827460267E0,-3.428609371E0,6.009209901E-2,5.222744122E-2,3.429533640E0
1.829968131E0,-3.424333334E0,5.092938989E-2,4.672981426E-2,3.425030841E0
1.832476048E0,-3.421890020E0,3.871244565E-2,3.817795217E-2,3.422321949E0
1.834983965E0,-3.417613983E0,4.298837483E-2,3.145863488E-2,3.418029108E0
1.837491881E0,-3.417613983E0,4.054498672E-2,3.451287001E-2,3.418028726E0
1.839999798E0,-3.417003155E0,4.421006888E-2,3.939964995E-2,3.417516265E0
1.842507663E0,-3.415170670E0,4.359922186E-2,4.184303805E-2,3.415705262E0
1.845015579E0,-3.415170670E0,5.031854287E-2,4.306473210E-2,3.415812821E0
1.847523496E0,-3.412727356E0,4.421006888E-2,4.306473210E-2,3.413285383E0
1.850031413E0,-3.411505699E0,4.115583375E-2,4.123219103E-2,3.412003082E0
1.852539329E0,-3.412116528E0,4.726430774E-2,3.878879920E-2,3.412664309E0
1.855047194E0,-3.412727356E0,4.421006888E-2,3.878879920E-2,3.413234113E0
1.857555110E0,-3.416392326E0,4.359922186E-2,4.062134400E-2,3.416911985E0
1.860063027E0,-3.418835640E0,4.176668078E-2,3.939964995E-2,3.419317757E0
1.862570944E0,-3.423722506E0,4.726430774E-2,4.001049697E-2,3.424282487E0
1.865078860E0,-3.424333334E0,4.604261369E-2,4.001049697E-2,3.424876574E0
1.867586777E0,-3.426165819E0,4.237752780E-2,3.817795217E-2,3.426640575E0
1.870094642E0,-3.427998543E0,4.115583375E-2,3.817795217E-2,3.428458162E0
1.872602558E0,-3.432885170E0,4.115583375E-2,3.695625812E-2,3.433330767E0
1.875110475E0,-3.437161207E0,3.871244565E-2,4.123219103E-2,3.437626494E0
1.877618392E0,-3.399288654E0,1.122431830E-2,4.306473210E-2,3.399579961E0
1.880126308E0,-3.276508331E0,7.658497244E-2,3.634541109E-2,3.277604780E0
1.882634173E0,-3.249631166E0,1.611109637E-2,3.329117596E-2,3.249841625E0
1.885142090E0,-3.217256069E0,3.199312463E-2,3.634541109E-2,3.217620419E0
1.887650006E0,-3.092032433E0,5.276193097E-2,1.863084175E-2,3.092538681E0
1.890157923E0,-2.982079983E0,2.649549954E-2,2.718270384E-2,2.982321568E0
1.892665840E0,-2.950926781E0,4.970769584E-2,4.062134400E-2,2.951624945E0
1.895173756E0,-2.905113220E0,3.932329267E-2,4.856235534E-2,2.905785169E0
1.897681621E0,-2.784776211E0,5.703786388E-2,4.550812021E-2,2.785732014E0
1.900189538E0,-2.690705776E0,4.115583375E-2,3.634541109E-2,2.691265941E0
1.902697454E0,-2.602133036E0,2.344126441E-2,3.145863488E-2,2.602428764E0
1.905205371E0,-2.489126205E0,4.054498672E-2,2.412846684E-2,2.489573326E0
1.907713288E0,-2.392612457E0,3.016058356E-2,2.779355086E-2,2.392963960E0
1.910221152E0,-2.296098471E0,2.649549954E-2,3.634541109E-2,2.296538958E0
1.912729069E0,-2.188589334E0,3.321481869E-2,3.512371704E-2,2.189123152E0
1.915236985E0,-2.081080198E0,3.749075159E-2,3.878879920E-2,2.081779268E0
1.917744902E0,-1.973571181E0,2.588465251E-2,3.451287001E-2,1.974042644E0
1.920252819E0,-1.864840269E0,2.160872146E-2,2.473931387E-2,1.865129540E0
1.922760683E0,-1.745648742E0,2.527380548E-2,1.374406368E-2,1.745885791E0
1.925268600E0,-1.638750434E0,2.221956849E-2,8.246437646E-3,1.638921809E0
1.927776517E0,-1.526965380E0,1.427855436E-2,1.374406368E-2,1.527093988E0
1.930284433E0,-1.406017661E0,2.221956849E-2,1.740914769E-2,1.406300982E0
1.932792350E0,-1.291789293E0,2.344126441E-2,2.229592577E-2,1.292194327E0
1.935300267E0,-1.176339149E0,1.611109637E-2,2.412846684E-2,1.176696879E0
1.937808131E0,-1.057223916E0,2.160872146E-2,1.801999472E-2,1.057598253E0
1.940316048E0,-9.423846006E-1,1.488940232E-2,8.246437646E-3,9.425382929E-1
1.942823965E0,-8.318212628E-1,-2.214321401E-3,-3.359660041E-3,8.318309948E-1
1.945331881E0,-7.279772162E-1,-5.268557463E-3,-5.192201585E-3,7.280147966E-1
1.947839798E0,-6.284091473E-1,-3.817795368E-4,4.581354558E-3,6.284259630E-1
1.950347715E0,-5.361711979E-1,5.115845706E-3,1.374406368E-2,5.363717224E-1
1.952855579E0,-4.457657933E-1,1.916533336E-2,2.168507688E-2,4.467042591E-1
1.955363496E0,-3.535278440E-1,2.710634656E-2,2.046338283E-2,3.551555160E-1
1.957871413E0,-2.631224692E-1,2.649549954E-2,8.246437646E-3,2.645816491E-1
1.960379329E0,-1.708845198E-1,1.450762269E-3,-5.803049076E-3,1.709891786E-1
1.962887194E0,-8.292251825E-2,-8.322793990E-3,-8.857285604E-3,8.380849862E-2
1.965395110E0,-1.068982761E-3,-1.443126611E-2,-2.137965523E-3,1.462788646E-2
1.967903027E0,8.628217876E-2,-1.382041909E-2,5.192201585E-3,8.753614860E-2
1.970410944E0,1.791309565E-1,-5.268557463E-3,1.007897966E-2,1.794916241E-1
1.972918860E0,2.707580328E-1,2.061609412E-3,1.068982668E-2,2.709768163E-1
1.975426777E0,3.709369898E-1,3.283303929E-3,3.970507067E-3,3.709727691E-1
1.977934642E0,4.686725736E-1,-1.076618303E-2,-8.246437646E-3,4.688687403E-1
1.980442558E0,5.554128885E-1,-1.565296017E-2,-1.557660475E-2,5.558517091E-1
1.982950475E0,6.354338527E-1,-7.101099472E-3,-1.863084175E-2,6.357465808E-1
1.985458392E0,7.227849960E-1,-2.214321401E-3,-1.801999472E-2,7.230129832E-1
1.987966308E0,8.125795722E-1,8.399150101E-4,-9.468132630E-3,8.126351655E-1
1.990474173E0,8.926768899E-1,5.726693198E-3,-3.970507067E-3,8.927040885E-1
1.992982090E0,9.733087420E-1,-8.933641016E-3,-8.246437646E-3,9.733846727E-1
1.995490006E0,1.060049057E0,-1.870719716E-2,-1.374406368E-2,1.060303193E0
1.997997923E0,1.145567656E0,-3.214583546E-2,-1.679829881E-2,1.146141698E0
2.000505840E0,1.231086254E0,-3.703261539E-2,-1.801999472E-2,1.231774939E0
2.003013756E0,1.318437457E0,-3.214583546E-2,-1.252236869E-2,1.318888734E0
2.005521673E0,1.410064578E0,-1.565296017E-2,-7.024743594E-3,1.410168953E0
2.008029538E0,1.493139744E0,-4.046862945E-3,-7.635590620E-3,1.493164751E0
2.010537454E0,1.566441417E0,-1.198787708E-2,-1.374406368E-2,1.566547580E0
2.013045371E0,1.639132261E0,-1.076618303E-2,-2.473931387E-2,1.639354298E0
2.015553288E0,1.716099024E0,-1.626380906E-2,-3.084778599E-2,1.716453308E0
2.018061204E0,1.787568092E0,-2.970244735E-2,-3.634541109E-2,1.788184249E0
2.020569069E0,1.849263668E0,-2.420482226E-2,-3.390202299E-2,1.849732774E0
2.023076985E0,1.911570191E0,-2.359397523E-2,-2.412846684E-2,1.911868054E0
2.025584902E0,1.973876595E0,-2.725905925E-2,-1.435491070E-2,1.974117001E0
2.028092819E0,2.025187731E0,-3.153498843E-2,-9.468132630E-3,2.025455368E0
2.030600735E0,2.066114426E0,-3.764346242E-2,-1.435491070E-2,2.066507177E0
2.033108652E0,2.104597807E0,-2.970244735E-2,-1.924168877E-2,2.104895343E0
2.035616517E0,2.154076576E0,-3.275668249E-2,-2.351761982E-2,2.154453985E0
2.038124433E0,2.210885286E0,-2.725905925E-2,-2.657185495E-2,2.211212986E0
2.040632350E0,2.273191690E0,-2.053973824E-2,-2.779355086E-2,2.273454381E0
2.043140267E0,2.326946259E0,-1.931804419E-2,-2.779355086E-2,2.327192420E0
2.045648183E0,2.375203133E0,-2.176143415E-2,-2.718270384E-2,2.375458352E0
2.048156048E0,2.421627522E0,-2.359397523E-2,-2.473931387E-2,2.421868816E0
2.050663965E0,2.474160433E0,-3.031329438E-2,-2.473931387E-2,2.474469797E0
2.053171881E0,2.524860859E0,-3.520007432E-2,-2.535016090E-2,2.525233461E0
2.055679798E0,2.578004599E0,-4.008685052E-2,-2.412846684E-2,2.578429144E0
2.058187715E0,2.626872301E0,-3.642176837E-2,-2.107422985E-2,2.627209309E0
2.060695579E0,2.676350832E0,-3.703261539E-2,-1.435491070E-2,2.676645523E0
2.063203496E0,2.721553564E0,-3.520007432E-2,-1.985253580E-2,2.721853591E0
2.065711413E0,2.771032333E0,-3.581092134E-2,-2.535016090E-2,2.771379665E0
2.068219329E0,2.815013170E0,-3.458922729E-2,-3.145863488E-2,2.815401429E0
2.070727246E0,2.857772589E0,-2.725905925E-2,-3.512371704E-2,2.858118420E0
2.073235163E0,2.893201590E0,-3.092414327E-2,-3.939964995E-2,2.893635097E0
2.075743027E0,2.931684971E0,-3.031329438E-2,-3.634541109E-2,2.932066959E0
2.078250944E0,2.960394859E0,-3.520007432E-2,-3.512371704E-2,2.960812463E0
2.080758860E0,2.984828711E0,-3.520007432E-2,-2.840439789E-2,2.985171400E0
2.083266777E0,3.004375935E0,-4.558447748E-2,-2.290677279E-2,3.004809049E0
2.085774694E0,3.022090435E0,-4.069769755E-2,-2.351761982E-2,3.022455951E0
2.088282610E0,3.038583279E0,-4.069769755E-2,-3.145863488E-2,3.039018639E0
2.090790475E0,3.059962988E0,-4.436278343E-2,-4.062134400E-2,3.060554139E0
2.093298392E0,3.079510212E0,-4.375193641E-2,-4.184303805E-2,3.080105228E0
2.095806308E0,3.107609034E0,-3.764346242E-2,-4.245388508E-2,3.108126971E0
2.098314225E0,3.144870758E0,-3.336753324E-2,-4.123219103E-2,3.145318040E0
2.100822142E0,3.188241005E0,-4.436278343E-2,-3.451287001E-2,3.188736411E0
2.103330006E0,3.234665394E0,-4.130854458E-2,-4.001049697E-2,3.235176571E0
2.105837923E0,3.268872738E0,-4.436278343E-2,-4.917320609E-2,3.269543552E0
2.108345840E0,3.296360970E0,-4.497363046E-2,-4.489727318E-2,3.296973466E0
2.110853756E0,3.331179142E0,-4.863871261E-2,-4.062134400E-2,3.331781850E0
2.113361673E0,3.365386724E0,-4.863871261E-2,-3.695625812E-2,3.365941071E0
2.115869538E0,3.394707203E0,-4.375193641E-2,-3.451287001E-2,3.395164556E0
2.118377454E0,3.421584606E0,-4.436278343E-2,-3.145863488E-2,3.422016791E0
2.120885371E0,3.449683428E0,-3.642176837E-2,-3.268032894E-2,3.450030478E0
2.123393288E0,3.479004145E0,-4.680617154E-2,-4.184303805E-2,3.479570591E0
2.125901204E0,3.505881548E0,-4.436278343E-2,-4.550812021E-2,3.506457539E0
2.128409121E0,3.531537056E0,-4.741701856E-2,-4.734066129E-2,3.532172630E0
2.130916985E0,3.555360079E0,-5.352549255E-2,-4.672981426E-2,3.556070014E0
2.133424902E0,3.574372768E0,-4.497363046E-2,-4.489727318E-2,3.574937633E0
2.135932819E0,3.594530582E0,-3.886515647E-2,-3.756710514E-2,3.594936981E0
2.138440735E0,3.606747627E0,-3.520007432E-2,-3.573456407E-2,3.607096402E0
2.140948652E0,3.619575500E0,-4.069769755E-2,-3.756710514E-2,3.619999226E0
2.143456569E0,3.633625031E0,-4.375193641E-2,-3.695625812E-2,3.634076342E0
2.145964433E0,3.647063494E0,-5.169294775E-2,-4.245388508E-2,3.647676880E0
2.148472350E0,3.636679173E0,-5.230379477E-2,-4.734066129E-2,3.637363362E0
2.150980267E0,3.598806620E0,-4.375193641E-2,-3.634541109E-2,3.599256077E0
2.153488183E0,3.560934067E0,-2.909160033E-2,-2.779355086E-2,3.561161360E0
2.155996100E0,3.557803392E0,-2.970244735E-2,-2.535016090E-2,3.558017685E0
2.158504017E0,3.563988447E0,-3.764346242E-2,-3.023693897E-2,3.564315496E0
2.161011881E0,3.556581736E0,-5.291464552E-2,-4.062134400E-2,3.557207289E0
2.163519798E0,3.533980370E0,-6.268820167E-2,-5.161659420E-2,3.534913201E0
2.166027715E0,3.524206877E0,-6.024480984E-2,-5.161659420E-2,3.525099689E0
2.168535631E0,3.521763563E0,-4.986040667E-2,-4.245388508E-2,3.522372352E0
2.171043548E0,3.510768175E0,-3.703261539E-2,-3.268032894E-2,3.511115577E0
2.173551465E0,3.496718884E0,-2.298312820E-2,-2.412846684E-2,3.496877658E0
2.176059329E0,3.489388704E0,-2.359397523E-2,-2.596100792E-2,3.489565042E0
2.178567246E0,3.485112667E0,-3.764346242E-2,-3.329117596E-2,3.485474951E0
2.181075163E0,3.465565681E0,-5.169294775E-2,-4.917320609E-2,3.466299995E0
2.183583079E0,3.421584606E0,-5.596888065E-2,-5.528167635E-2,3.422488831E0
2.186090996E0,3.353169680E0,-4.619532451E-2,-5.283828825E-2,3.353904112E0
2.188598860E0,3.265818596E0,-4.497363046E-2,-4.123219103E-2,3.266388498E0
2.191106777E0,3.158309460E0,-3.153498843E-2,-3.023693897E-2,3.158611621E0
2.193614694E0,3.038583279E0,-2.115058713E-2,-2.290677279E-2,3.038743229E0
2.196122610E0,2.919468164E0,-2.481566928E-2,-2.351761982E-2,2.919668347E0
2.198630527E0,2.812569857E0,-3.092414327E-2,-2.596100792E-2,2.812859661E0
2.201138444E0,2.712390900E0,-3.825430945E-2,-3.390202299E-2,2.712872487E0
2.203646308E0,2.620152950E0,-5.047125369E-2,-3.634541109E-2,2.620891035E0
2.206154225E0,2.532191038E0,-4.741701856E-2,-2.901524492E-2,2.532801159E0
2.208662142E0,2.450337410E0,-4.069769755E-2,-2.473931387E-2,2.450800228E0
2.211170058E0,2.379479170E0,-3.336753324E-2,-2.596100792E-2,2.379854720E0
2.213677975E0,2.315951109E0,-2.970244735E-2,-1.924168877E-2,2.316221496E0
2.216185892E0,2.268915892E0,-2.725905925E-2,-2.107422985E-2,2.269177495E0
2.218693808E0,2.231043339E0,-3.336753324E-2,-2.779355086E-2,2.231465943E0
2.221201673E0,2.207220316E0,-3.275668249E-2,-3.023693897E-2,2.207670445E0
2.223709590E0,2.196224928E0,-3.947600350E-2,-3.023693897E-2,2.196787782E0
2.226217506E0,2.190727234E0,-3.703261539E-2,-2.657185495E-2,2.191201335E0
2.228725423E0,2.195614100E0,-3.520007432E-2,-2.412846684E-2,2.196028803E0
2.231233288E0,2.207220316E0,-4.130854458E-2,-2.229592577E-2,2.207719418E0
2.233741204E0,2.205387592E0,-3.397838026E-2,-2.229592577E-2,2.205762016E0
2.236249121E0,2.192559958E0,-2.420482226E-2,-2.657185495E-2,2.192854556E0
2.238757038E0,2.177288771E0,-2.664821222E-2,-2.840439789E-2,2.177637097E0
2.241264954E0,2.161406755E0,-2.848075330E-2,-2.718270384E-2,2.161765301E0
2.243772871E0,2.141859531E0,-2.603736520E-2,-2.535016090E-2,2.142167787E0
2.246280735E0,2.123534203E0,-2.848075330E-2,-2.473931387E-2,2.123869275E0
2.248788652E0,2.110095501E0,-3.214583546E-2,-2.168507688E-2,2.110451757E0
2.251296569E0,2.098489285E0,-3.092414327E-2,-2.351761982E-2,2.098848889E0
2.253804485E0,2.092991829E0,-3.092414327E-2,-2.473931387E-2,2.093366459E0
2.256312402E0,2.088715792E0,-2.970244735E-2,-2.168507688E-2,2.089039525E0
2.258820319E0,2.089326620E0,-3.214583546E-2,-2.535016090E-2,2.089727664E0
2.261328183E0,2.086272478E0,-3.275668249E-2,-2.229592577E-2,2.086648739E0
2.263836100E0,2.081996441E0,-2.970244735E-2,-2.046338283E-2,2.082308854E0
2.266344017E0,2.084439993E0,-2.848075330E-2,-1.985253580E-2,2.084729086E0
2.268851933E0,2.092991829E0,-2.359397523E-2,-2.168507688E-2,2.093237138E0
2.271359850E0,2.105819464E0,-1.870719716E-2,-2.046338283E-2,2.106001976E0
2.273867767E0,2.121701479E0,-2.542651631E-2,-2.229592577E-2,2.121970966E0
2.276375631E0,2.140637875E0,-2.481566928E-2,-2.596100792E-2,2.140939117E0
2.278883548E0,2.165682554E0,-2.970244735E-2,-2.535016090E-2,2.166034578E0
2.281391465E0,2.193170786E0,-3.520007432E-2,-2.535016090E-2,2.193599729E0
2.283899381E0,2.217604637E0,-2.970244735E-2,-2.473931387E-2,2.217941522E0
2.286407298E0,2.242649317E0,-2.725905925E-2,-2.473931387E-2,2.242951415E0
2.288915163E0,2.268304825E0,-2.359397523E-2,-2.107422985E-2,2.268525419E0
2.291423079E0,2.296403885E0,-2.909160033E-2,-2.107422985E-2,2.296684838E0
2.293930996E0,2.322670460E0,-3.214583546E-2,-2.535016090E-2,2.323031220E0
2.296438913E0,2.350158453E0,-2.848075330E-2,-2.473931387E-2,2.350461219E0
2.298946829E0,2.381922483E0,-3.825430945E-2,-2.351761982E-2,2.382345732E0
2.301454746E0,2.406967163E0,-3.886515647E-2,-2.535016090E-2,2.407414392E0
2.303962663E0,2.428346872E0,-3.031329438E-2,-2.840439789E-2,2.428702172E0
2.306470527E0,2.451559067E0,-3.153498843E-2,-2.962609194E-2,2.451940868E0
2.308978444E0,2.468662739E0,-3.336753324E-2,-3.268032894E-2,2.469104517E0
2.311486360E0,2.482101440E0,-3.764346242E-2,-3.206948191E-2,2.482594015E0
2.313994277E0,2.491264105E0,-3.642176837E-2,-3.023693897E-2,2.491713799E0
2.316502194E0,2.499205112E0,-3.458922729E-2,-2.901524492E-2,2.499612869E0
2.319010058E0,2.502259493E0,-3.947600350E-2,-3.268032894E-2,2.502784235E0
2.321517975E0,2.494318485E0,-3.397838026E-2,-2.779355086E-2,2.494704736E0
2.324025892E0,2.488209963E0,-3.336753324E-2,-2.718270384E-2,2.488582149E0
2.326533808E0,2.482101440E0,-3.458922729E-2,-2.962609194E-2,2.482519221E0
2.329041725E0,2.469884634E0,-3.642176837E-2,-2.718270384E-2,2.470302724E0
2.331549590E0,2.454002619E0,-3.520007432E-2,-2.718270384E-2,2.454405589E0
2.334057506E0,2.435066223E0,-4.069769755E-2,-2.962609194E-2,2.435586484E0
2.336565423E0,2.414297342E0,-3.703261539E-2,-2.840439789E-2,2.414748410E0
2.339073340E0,2.386809349E0,-3.581092134E-2,-2.962609194E-2,2.387261820E0
2.341581256E0,2.354434490E0,-3.031329438E-2,-2.718270384E-2,2.354786522E0
2.344089173E0,2.327557087E0,-3.031329438E-2,-2.779355086E-2,2.327920396E0
2.346597090E0,2.297014713E0,-3.092414327E-2,-2.718270384E-2,2.297383685E0
2.349104954E0,2.266472340E0,-3.336753324E-2,-2.657185495E-2,2.266873689E0
2.351612871E0,2.230432510E0,-3.520007432E-2,-2.657185495E-2,2.230868506E0
2.354120788E0,2.196224928E0,-3.092414327E-2,-2.473931387E-2,2.196581952E0
2.356628704E0,2.162628412E0,-2.725905925E-2,-2.473931387E-2,2.162941687E0
2.359136621E0,2.129642725E0,-3.214583546E-2,-2.168507688E-2,2.129995712E0
2.361644485E0,2.094213486E0,-2.542651631E-2,-2.046338283E-2,2.094467804E0
2.364152402E0,2.061227798E0,-2.603736520E-2,-2.107422985E-2,2.061499965E0
2.366660319E0,2.029463768E0,-2.848075330E-2,-2.290677279E-2,2.029792861E0
2.369168235E0,1.997699618E0,-2.237228118E-2,-2.290677279E-2,1.997956207E0
2.371676152E0,1.965324640E0,-2.909160033E-2,-2.229592577E-2,1.965666394E0
2.374184069E0,1.931728125E0,-2.359397523E-2,-2.351761982E-2,1.932015347E0
2.376691933E0,1.897520661E0,-2.481566928E-2,-1.985253580E-2,1.897786764E0
2.379199850E0,1.858426452E0,-2.481566928E-2,-2.107422985E-2,1.858711601E0
2.381707767E0,1.821164727E0,-2.481566928E-2,-2.107422985E-2,1.821455710E0
2.384215683E0,1.784513950E0,-2.725905925E-2,-1.924168877E-2,1.784825856E0
2.386723600E0,1.737478614E0,-2.603736520E-2,-2.168507688E-2,1.737809000E0
2.389231517E0,1.684945822E0,-2.420482226E-2,-2.046338283E-2,1.685243913E0
2.391739381E0,1.628136992E0,-2.420482226E-2,-1.924168877E-2,1.628430589E0
2.394247298E0,1.570106506E0,-2.176143415E-2,-1.801999472E-2,1.570360698E0
2.396755215E0,1.505967617E0,-1.992889121E-2,-1.679829881E-2,1.506193151E0
2.399263131E0,1.439385176E0,-2.298312820E-2,-1.618745178E-2,1.439659662E0
2.401771048E0,1.371581197E0,-2.420482226E-2,-1.740914769E-2,1.371905219E0
2.404278965E0,1.300112009E0,-2.053973824E-2,-1.496575773E-2,1.300360370E0
2.406786829E0,1.228032112E0,-1.931804419E-2,-1.374406368E-2,1.228260947E0
2.409294746E0,1.154119492E0,-1.992889121E-2,-1.252236869E-2,1.154359464E0
2.411802663E0,1.082039595E0,-1.870719716E-2,-1.313321572E-2,1.082280982E0
2.414310579E0,1.008127093E0,-1.626380906E-2,-1.068982668E-2,1.008314941E0
2.416818496E0,9.329928160E-1,-1.565296017E-2,-9.468132630E-3,9.331721467E-1
2.419326413E0,8.596147895E-1,-1.382041909E-2,-1.130067464E-2,8.598001486E-1
2.421834277E0,7.875348330E-1,-1.565296017E-2,-1.068982668E-2,7.877629089E-1
2.424342194E0,7.185090780E-1,-1.198787708E-2,-6.413896102E-3,7.186376990E-1
2.426850110E0,6.500942111E-1,-1.320957206E-2,-6.413896102E-3,6.502600358E-1
2.429358027E0,5.798467398E-1,-1.382041909E-2,-3.970507067E-3,5.800250085E-1
2.431865944E0,5.144860744E-1,-1.320957206E-2,-5.803049076E-3,5.146883416E-1
2.434373860E0,4.509579837E-1,-8.322793990E-3,-3.970507067E-3,4.510522552E-1
2.436881725E0,3.904841244E-1,-1.015533600E-2,-4.581354558E-3,3.906430226E-1
2.439389642E0,3.312319219E-1,-8.322793990E-3,-5.803049076E-3,3.313872815E-1
2.441897558E0,2.719797492E-1,-6.490251981E-3,-2.748812549E-3,2.720710630E-1
2.444405475E0,2.170034945E-1,-7.101099472E-3,-9.162708884E-4,2.171215830E-1
2.446913392E0,1.626380831E-1,-7.711946499E-3,-3.054236295E-4,1.628211088E-1
2.449421308E0,1.143811494E-1,-5.268557463E-3,2.748812549E-3,1.145354138E-1
2.451929173E0,6.368082762E-2,-4.046862945E-3,3.054236295E-4,6.381001637E-2
2.454437090E0,1.603474095E-2,2.672456671E-3,2.137965523E-3,1.639590921E-2
2.456945006E0,-2.611372061E-2,-2.825168660E-3,3.054236295E-4,2.626787517E-2
2.459452923E0,-6.459710002E-2,-9.926267667E-4,3.054236295E-4,6.460544809E-2
2.461960840E0,-1.049130186E-1,-2.214321401E-3,2.137965523E-3,1.049581612E-1
2.464468756E0,-1.403421611E-1,-9.926267667E-4,9.162708884E-4,1.403486624E-1
2.466976621E0,-1.733279079E-1,2.290677221E-4,3.359660041E-3,1.733606168E-1
2.469484538E0,-2.069245130E-1,3.283303929E-3,3.970507067E-3,2.069886448E-1
2.471992454E0,-2.344126403E-1,5.726693198E-3,3.359660041E-3,2.345066487E-1
2.474500371E0,-2.600682080E-1,2.061609412E-3,3.970507067E-3,2.601066857E-1
2.477008288E0,-2.832804024E-1,5.726693198E-3,5.192201585E-3,2.833858507E-1
2.479516152E0,-3.058817685E-1,1.000262424E-2,6.413896102E-3,3.061124742E-1
2.482024069E0,-3.266505599E-1,2.672456671E-3,5.192201585E-3,3.267027537E-1
2.484531985E0,-3.461976945E-1,3.283303929E-3,5.803049076E-3,3.462618939E-1
2.487039902E0,-3.620797098E-1,4.504998680E-3,7.635590620E-3,3.621882294E-1
2.489547819E0,-3.791834414E-1,7.559234742E-3,7.024743594E-3,3.793238343E-1
2.492055735E0,-3.938437700E-1,1.061347127E-2,8.246437646E-3,3.940730449E-1
2.494563600E0,-4.030064642E-1,5.726693198E-3,5.192201585E-3,4.030805927E-1
2.497071517E0,-4.152234197E-1,4.504998680E-3,7.024743594E-3,4.153072721E-1
2.499579433E0,-4.262186885E-1,7.559234742E-3,7.024743594E-3,4.263435932E-1
2.502087350E0,-4.366030693E-1,3.283303929E-3,7.635590620E-3,4.366821756E-1
2.504595267E0,-4.469874799E-1,6.948387716E-3,7.024743594E-3,4.470966722E-1
2.507103183E0,-4.567610323E-1,5.115845706E-3,6.413896102E-3,4.568347082E-1
2.509611048E0,-4.640912116E-1,8.399150101E-4,5.803049076E-3,4.641282511E-1
2.512118965E0,-4.720322192E-1,2.061609412E-3,5.803049076E-3,4.720723902E-1
2.514626881E0,-4.775298536E-1,3.894151188E-3,6.413896102E-3,4.775888017E-1
2.517134798E0,-4.860817194E-1,5.726693198E-3,8.246437646E-3,4.861853933E-1
2.519642715E0,-4.879142344E-1,6.337540224E-3,8.857285604E-3,4.880357733E-1
2.522150631E0,-4.897467792E-1,4.504998680E-3,5.803049076E-3,4.898018764E-1
2.524658496E0,-4.940227270E-1,3.283303929E-3,4.581354558E-3,4.940548792E-1
2.527166413E0,-4.958552718E-1,3.283303929E-3,6.413896102E-3,4.959076212E-1
2.529674329E0,-4.970769584E-1,3.283303929E-3,6.413896102E-3,4.971291791E-1
2.532182246E0,-5.001311898E-1,3.283303929E-3,6.413896102E-3,5.001830917E-1
2.534690163E0,-5.031854510E-1,3.283303929E-3,7.024743594E-3,5.032451940E-1
2.537198079E0,-5.068505406E-1,4.504998680E-3,5.803049076E-3,5.069037788E-1
2.539705944E0,-5.123481154E-1,5.726693198E-3,5.803049076E-3,5.124129797E-1
2.542213860E0,-5.209000111E-1,7.559234742E-3,6.413896102E-3,5.209943393E-1
2.544721777E0,-5.288410187E-1,3.894151188E-3,5.803049076E-3,5.288871929E-1
2.547229694E0,-5.373928547E-1,6.337540224E-3,5.803049076E-3,5.374615522E-1
2.549737610E0,-5.471664071E-1,3.283303929E-3,8.246437646E-3,5.472383949E-1
2.552245527E0,-5.551074743E-1,3.283303929E-3,8.246437646E-3,5.551784325E-1
2.554753392E0,-5.691569448E-1,1.366770733E-2,7.024743594E-3,5.693643658E-1
2.557261308E0,-5.777087808E-1,6.948387716E-3,8.857285604E-3,5.778184550E-1
2.559769225E0,-5.874823332E-1,8.170082234E-3,7.635590620E-3,5.875887544E-1
2.562277142E0,-5.960342288E-1,1.305686031E-2,9.468132630E-3,5.962524038E-1
2.564785058E0,-6.070294380E-1,7.559234742E-3,1.068982668E-2,6.071706128E-1
2.567292975E0,-6.161921620E-1,1.366770733E-2,1.068982668E-2,6.164364194E-1
2.569800840E0,-6.216897964E-1,6.337540224E-3,1.007897966E-2,6.218037900E-1
2.572308756E0,-6.277982593E-1,8.170082234E-3,7.024743594E-3,6.278907163E-1
2.574816673E0,-6.381826997E-1,1.183516532E-2,8.246437646E-3,6.383457003E-1
2.577324590E0,-6.467345357E-1,1.366770733E-2,8.857285604E-3,6.469395779E-1
2.579832506E0,-6.522321701E-1,7.559234742E-3,7.024743594E-3,6.523137993E-1
2.582340423E0,-6.595623493E-1,1.427855436E-2,7.635590620E-3,6.597610719E-1
2.584848288E0,-6.650599241E-1,1.061347127E-2,7.635590620E-3,6.651884325E-1
2.587356204E0,-6.662816405E-1,6.337540224E-3,7.635590620E-3,6.663555291E-1
2.589864121E0,-6.687250137E-1,1.244601328E-2,7.024743594E-3,6.688777125E-1
2.592372038E0,-6.681141853E-1,1.000262424E-2,6.413896102E-3,6.682198405E-1
2.594879954E0,-6.675033569E-1,1.000262424E-2,1.130067464E-2,6.676739393E-1
2.597387871E0,-6.644490957E-1,1.488940232E-2,9.468132630E-3,6.646833386E-1
2.599895735E0,-6.571189165E-1,9.391776286E-3,1.191152167E-2,6.572939679E-1
2.602403652E0,-6.540647149E-1,8.780929260E-3,7.635590620E-3,6.541682186E-1
2.604911569E0,-6.461237073E-1,1.366770733E-2,1.068982668E-2,6.463566537E-1
2.607419485E0,-6.363501549E-1,6.337540224E-3,6.413896102E-3,6.364140335E-1
2.609927402E0,-6.302416325E-1,1.000262424E-2,7.024743594E-3,6.303601469E-1
2.612435319E0,-6.265766025E-1,1.061347127E-2,3.970507067E-3,6.266790642E-1
2.614943183E0,-6.229115129E-1,1.000262424E-2,8.857285604E-3,6.230547784E-1
2.617451100E0,-6.235223413E-1,3.894151188E-3,5.803049076E-3,6.235615044E-1
2.619959017E0,-6.247440577E-1,1.122431830E-2,7.635590620E-3,6.248915307E-1
2.622466933E0,-6.271874309E-1,5.726693198E-3,7.635590620E-3,6.272600503E-1
2.624974850E0,-6.308525205E-1,6.948387716E-3,6.413896102E-3,6.309233874E-1
2.627482767E0,-6.394043565E-1,8.780929260E-3,7.635590620E-3,6.395102330E-1
2.629990631E0,-6.479562521E-1,1.183516532E-2,1.007897966E-2,6.481427016E-1
2.632498548E0,-6.497887969E-1,6.948387716E-3,9.468132630E-3,6.498949194E-1
2.635006465E0,-6.540647149E-1,1.122431830E-2,1.068982668E-2,6.542483542E-1
2.637514381E0,-6.540647149E-1,3.894151188E-3,1.130067464E-2,6.541739226E-1
2.640022298E0,-6.552863717E-1,3.894151188E-3,9.468132630E-3,6.553663395E-1
2.642530215E0,-6.565080881E-1,1.061347127E-2,9.468132630E-3,6.566621362E-1
2.645038079E0,-6.540647149E-1,3.894151188E-3,8.246437646E-3,6.541282897E-1
2.647545996E0,-6.522321701E-1,7.559234742E-3,9.468132630E-3,6.523446875E-1
2.650053913E0,-6.522321701E-1,1.000262424E-2,8.857285604E-3,6.523689966E-1
2.652561829E0,-6.540647149E-1,9.391776286E-3,8.246437646E-3,6.541841182E-1
2.655069746E0,-6.583406329E-1,1.488940232E-2,1.007897966E-2,6.585861136E-1
2.657577663E0,-6.565080881E-1,8.170082234E-3,9.468132630E-3,6.566271892E-1
2.660085527E0,-6.491779089E-1,8.170082234E-3,7.635590620E-3,6.492742178E-1
2.662593444E0,-6.412369013E-1,2.061609412E-3,8.246437646E-3,6.412932383E-1
2.665101360E0,-6.332958937E-1,6.337540224E-3,5.803049076E-3,6.333541890E-1
2.667609277E0,-6.216897964E-1,5.115845706E-3,8.857285604E-3,6.217739351E-1
2.670117194E0,-6.131379604E-1,5.115845706E-3,8.857285604E-3,6.132232725E-1
2.672625110E0,-6.045860648E-1,1.244601328E-2,8.246437646E-3,6.047703835E-1
2.675132975E0,-5.948125124E-1,8.170082234E-3,9.468132630E-3,5.949439643E-1
2.677640892E0,-5.868715048E-1,8.780929260E-3,5.192201585E-3,5.869601578E-1
2.680148808E0,-5.838172436E-1,9.391776286E-3,8.246437646E-3,5.839510109E-1
2.682656725E0,-5.777087808E-1,1.122431830E-2,9.468132630E-3,5.778953765E-1
2.685164642E0,-5.697677732E-1,8.170082234E-3,9.468132630E-3,5.699050018E-1
2.687672558E0,-5.563291311E-1,7.559234742E-3,8.857285604E-3,5.564509823E-1
2.690180423E0,-5.453338623E-1,5.115845706E-3,8.857285604E-3,5.454297799E-1
2.692688340E0,-5.343386531E-1,3.894151188E-3,7.635590620E-3,5.344073941E-1
2.695196256E0,-5.227325559E-1,4.504998680E-3,5.803049076E-3,5.227841766E-1
2.697704173E0,-5.117372870E-1,4.504998680E-3,5.192201585E-3,5.117834551E-1
2.700212090E0,-5.001311898E-1,6.337540224E-3,7.635590620E-3,5.002296210E-1
2.702720006E0,-4.885250926E-1,5.115845706E-3,7.024743594E-3,4.886023792E-1
2.705227871E0,-4.769189954E-1,5.726693198E-3,8.246437646E-3,4.770246607E-1
2.707735788E0,-4.653128982E-1,6.948387716E-3,7.024743594E-3,4.654177911E-1
2.710243704E0,-4.616478086E-1,5.726693198E-3,6.413896102E-3,4.617278768E-1
2.712751621E0,-4.524851143E-1,5.115845706E-3,5.192201585E-3,4.525438206E-1
2.715259538E0,-4.421007037E-1,8.780929260E-3,5.803049076E-3,4.422259743E-1
2.717767454E0,-4.329380095E-1,3.894151188E-3,6.413896102E-3,4.330030283E-1
2.720275319E0,-4.219427407E-1,-9.926267667E-4,6.413896102E-3,4.219926537E-1
2.722783235E0,-4.140017331E-1,2.290677221E-4,7.024743594E-3,4.140613897E-1
2.725291152E0,-4.054498672E-1,4.504998680E-3,5.192201585E-3,4.055081366E-1
2.727799069E0,-3.968980014E-1,6.948387716E-3,3.970507067E-3,3.969786752E-1
2.730306985E0,-3.840702176E-1,1.450762269E-3,3.970507067E-3,3.840934804E-1
2.732814850E0,-3.742966652E-1,3.894151188E-3,5.192201585E-3,3.743529310E-1
2.735322767E0,-3.620797098E-1,3.283303929E-3,3.970507067E-3,3.621163642E-1
2.737830683E0,-3.504736125E-1,1.450762269E-3,5.192201585E-3,3.505150735E-1
2.740338600E0,-3.358132839E-1,8.399150101E-4,5.192201585E-3,3.358544716E-1
2.742846517E0,-3.193204105E-1,8.399150101E-4,1.527118147E-3,3.193251667E-1
2.745354433E0,-3.077143133E-1,5.726693198E-3,2.137965523E-3,3.077750225E-1
2.747862350E0,-2.924431264E-1,2.672456671E-3,6.413896102E-3,2.925256609E-1
2.750370215E0,-2.783936262E-1,6.337540224E-3,5.803049076E-3,2.785262123E-1
2.752878131E0,-2.637332976E-1,3.283303929E-3,5.192201585E-3,2.638048356E-1
2.755386048E0,-2.509055138E-1,5.115845706E-3,3.359660041E-3,2.509801507E-1
2.757893965E0,-2.380777150E-1,6.337540224E-3,4.581354558E-3,2.382061116E-1
2.760401881E0,-2.258607745E-1,3.894151188E-3,2.748812549E-3,2.259110662E-1
2.762909798E0,-2.136438340E-1,2.672456671E-3,2.137965523E-3,2.136712445E-1
2.765417663E0,-2.026485801E-1,6.948387716E-3,2.748812549E-3,2.027862990E-1
2.767925579E0,-1.928750277E-1,2.672456671E-3,5.803049076E-3,1.929808117E-1
2.770433496E0,-1.824906170E-1,3.283303929E-3,4.581354558E-3,1.825776388E-1
2.772941413E0,-1.751604527E-1,2.061609412E-3,2.748812549E-3,1.751941506E-1
2.775449329E0,-1.696628332E-1,4.504998680E-3,3.970507067E-3,1.697690694E-1
2.777957194E0,-1.647760421E-1,2.290677221E-4,3.359660041E-3,1.648104482E-1
2.780465110E0,-1.592784226E-1,2.290677221E-4,2.748812549E-3,1.593023049E-1
2.782973027E0,-1.550024897E-1,5.726693198E-3,5.192201585E-3,1.551951216E-1
2.785480944E0,-1.543916464E-1,-3.817795368E-4,9.162708884E-4,1.543948373E-1
2.787988860E0,-1.556133330E-1,7.559234742E-3,2.748812549E-3,1.558210750E-1
2.790496777E0,-1.525591016E-1,1.450762269E-3,2.137965523E-3,1.525809788E-1
2.793004694E0,-1.611109674E-1,3.894151188E-3,3.054236295E-4,1.611583120E-1
2.795512558E0,-1.653869003E-1,8.170082234E-3,3.054236295E-4,1.655888593E-1
2.798020475E0,-1.678302884E-1,2.061609412E-3,1.527118147E-3,1.678498973E-1
2.800528392E0,-1.696628332E-1,8.399150101E-4,1.527118147E-3,1.696717847E-1
2.803036308E0,-1.751604527E-1,4.504998680E-3,3.359660041E-3,1.752505821E-1
2.805544225E0,-1.800472289E-1,8.399150101E-4,3.970507067E-3,1.800929622E-1
2.808052142E0,-1.831014603E-1,6.948387716E-3,3.359660041E-3,1.832640504E-1
2.810560058E0,-1.855448484E-1,3.894151188E-3,3.054236295E-4,1.855859598E-1
2.813067923E0,-1.910424829E-1,2.061609412E-3,2.748812549E-3,1.910733798E-1
2.815575840E0,-1.953184158E-1,2.672456671E-3,2.137965523E-3,1.953483976E-1
2.818083756E0,-1.977618039E-1,2.672456671E-3,2.137965523E-3,1.977914154E-1
2.820591673E0,-2.038702667E-1,-2.214321401E-3,2.137965523E-3,2.038935010E-1
2.823099538E0,-2.130329758E-1,1.450762269E-3,2.748812549E-3,2.130556487E-1
2.825607454E0,-2.215848416E-1,5.115845706E-3,2.748812549E-3,2.216609345E-1
2.828115371E0,-2.270824611E-1,8.399150101E-4,4.581354558E-3,2.271302235E-1
2.830623288E0,-2.338017821E-1,5.115845706E-3,9.162708884E-4,2.338595407E-1
2.833131204E0,-2.380777150E-1,-9.926267667E-4,3.970507067E-3,2.381128905E-1
2.835639121E0,-2.429644912E-1,1.450762269E-3,4.581354558E-3,2.430120111E-1
2.838147038E0,-2.454078794E-1,1.450762269E-3,3.359660041E-3,2.454351631E-1
2.840654902E0,-2.447970361E-1,-1.603474026E-3,3.359660041E-3,2.448253404E-1
2.843162819E0,-2.441861928E-1,2.672456671E-3,5.803049076E-3,2.442697569E-1
2.845670735E0,-2.435753495E-1,3.283303929E-3,2.748812549E-3,2.436129859E-1
2.848178652E0,-2.441861928E-1,4.504998680E-3,1.527118147E-3,2.442325200E-1
2.850686569E0,-2.362451702E-1,2.672456671E-3,3.359660041E-3,2.362841717E-1
2.853194485E0,-2.276933193E-1,2.290677221E-4,3.359660041E-3,2.277182194E-1
2.855702350E0,-2.203631550E-1,2.061609412E-3,4.581354558E-3,2.204204145E-1
2.858210267E0,-2.081461996E-1,1.450762269E-3,1.527118147E-3,2.081568572E-1
2.860718183E0,-1.959292591E-1,2.061609412E-3,2.137965523E-3,1.959517688E-1
2.863226100E0,-1.849340051E-1,3.283303929E-3,4.581354558E-3,1.850198777E-1
2.865734017E0,-1.702736765E-1,1.450762269E-3,3.359660041E-3,1.703129970E-1
2.868241933E0,-1.525591016E-1,4.504998680E-3,2.748812549E-3,1.526503536E-1
2.870749798E0,-1.391204596E-1,5.726693198E-3,3.359660041E-3,1.392788017E-1
2.873257715E0,-1.214058921E-1,2.061609412E-3,3.359660041E-3,1.214698653E-1
2.875765631E0,-1.055238619E-1,2.061609412E-3,3.359660041E-3,1.055974573E-1
2.878273548E0,-9.025268257E-2,2.061609412E-3,2.748812549E-3,9.031806527E-2
2.880781465E0,-7.437065244E-2,8.399150101E-4,-3.054236295E-4,7.437602224E-2
2.883289381E0,-6.215370819E-2,1.450762269E-3,1.527118147E-3,6.218939011E-2
2.885797246E0,-5.176930502E-2,8.399150101E-4,3.970507067E-3,5.192813617E-2
2.888305163E0,-4.077405483E-2,1.450762269E-3,2.137965523E-3,4.085583379E-2
2.890813079E0,-3.405473381E-2,2.290677221E-4,1.527118147E-3,3.408972656E-2
2.893320996E0,-2.550287358E-2,2.672456671E-3,3.054236295E-4,2.564433406E-2
2.895828913E0,-2.183778957E-2,8.399150101E-4,-3.054236295E-4,2.185606996E-2
2.898336829E0,-1.511846948E-2,2.061609412E-3,-9.162708884E-4,1.528587273E-2
2.900844694E0,-1.389677543E-2,2.672456671E-3,-1.527118147E-3,1.423356884E-2
2.903352610E0,-1.389677543E-2,2.290677221E-4,-3.054236295E-4,1.390201867E-2
2.905860527E0,-2.367033064E-2,3.283303929E-3,9.162708884E-4,2.391451839E-2
2.908368444E0,-3.283303976E-2,8.399150101E-4,3.359660041E-3,3.301516731E-2
2.910876360E0,-3.710897267E-2,2.061609412E-3,2.137965523E-3,3.722763735E-2
2.913384277E0,-4.077405483E-2,-9.926267667E-4,3.054236295E-4,4.078727912E-2
2.915892142E0,-5.360184610E-2,1.450762269E-3,-3.054236295E-4,5.362234516E-2
2.918400058E0,-1.293469071E-1,-3.031329438E-2,-1.557660475E-2,1.337615371E-1
2.920907975E0,-2.124221325E-1,1.183516532E-2,2.840439789E-2,2.146393331E-1
2.923415892E0,-2.405211031E-1,5.726693198E-3,2.107422985E-2,2.415104951E-1
2.925923808E0,-2.338017821E-1,6.948387716E-3,-7.635590620E-3,2.340296042E-1
2.928431725E0,-2.124221325E-1,1.427855436E-2,-4.581354558E-3,2.129507650E-1
2.930939590E0,-2.466295809E-1,2.672456671E-3,8.246437646E-3,2.467818792E-1
2.933447506E0,-2.680092454E-1,8.399150101E-4,1.557660475E-2,2.684628311E-1
2.935955423E0,-2.564031482E-1,-4.046862945E-3,-6.413896102E-3,2.565152813E-1
2.938463340E0,-2.551814318E-1,-5.268557463E-3,-5.192201585E-3,2.552886205E-1
2.940971256E0,-2.771719396E-1,-4.046862945E-3,1.863084175E-2,2.778268696E-1
2.943479173E0,-3.083251417E-1,3.283303929E-3,8.857285604E-3,3.084698115E-1
2.945987038E0,-3.126010895E-1,1.183516532E-2,-1.527118147E-3,3.128287780E-1
2.948494954E0,-2.997733057E-1,1.488940232E-2,1.007897966E-2,3.003120293E-1
2.951002871E0,-2.881672084E-1,1.061347127E-2,1.252236869E-2,2.886343630E-1
2.953510788E0,-2.594573796E-1,1.916533336E-2,9.162708884E-4,2.601658728E-1
2.956018704E0,-2.728960216E-1,-5.352549255E-2,8.857285604E-3,2.782367130E-1
2.958526621E0,-3.168770075E-1,1.794363745E-2,8.246437646E-3,3.174917569E-1
2.961034485E0,-3.504736125E-1,-3.031329438E-2,5.192201585E-3,3.518204199E-1
2.963542402E0,-3.816268146E-1,6.337540224E-3,5.192201585E-3,3.817147482E-1
2.966050319E0,-4.109475017E-1,1.366770733E-2,3.970507067E-3,4.111938962E-1
2.968558235E0,-4.695888162E-1,1.550024934E-2,4.581354558E-3,4.698668990E-1
2.971066152E0,-5.147915483E-1,1.366770733E-2,1.252236869E-2,5.151251829E-1
2.973574069E0,-5.587725043E-1,-1.137703005E-2,1.557660475E-2,5.591053380E-1
2.976081985E0,-6.332958937E-1,-5.268557463E-3,2.046338283E-2,6.336483226E-1
2.978589850E0,-6.876612902E-1,-9.544488043E-3,5.192201585E-3,6.877471237E-1
2.981097767E0,-7.371399403E-1,9.391776286E-3,2.137965523E-3,7.372028675E-1
2.983605683E0,-7.829535007E-1,2.588465251E-2,3.359660041E-3,7.833884649E-1
2.986113600E0,-8.305995464E-1,1.977618039E-2,9.162708884E-4,8.308354490E-1
2.988621517E0,-9.063445926E-1,-4.657710437E-3,2.046338283E-2,9.065875384E-1
2.991129433E0,-9.515473247E-1,1.733279042E-2,3.206948191E-2,9.522453404E-1
2.993637298E0,-1.010799527E0,-8.322793990E-3,1.679829881E-2,1.010973361E0
2.996145215E0,-1.082268596E0,-5.879404955E-3,1.985253580E-2,1.082466629E0
2.998653131E0,-1.173895717E0,1.244601328E-2,1.435491070E-2,1.174049454E0
3.001161048E0,-1.240478039E0,1.366770733E-2,3.359660041E-3,1.240557882E0
3.003668965E0,-1.291789293E0,2.038702741E-2,1.068982668E-2,1.291994381E0
3.006176829E0,-1.336991906E0,2.344126441E-2,2.046338283E-2,1.337353955E0
3.008684746E0,-1.354706526E0,2.649549954E-2,2.290677279E-2,1.355159217E0
3.011192663E0,-1.379751205E0,3.283303929E-3,2.107422985E-2,1.379916045E0
3.013700579E0,-1.385859728E0,1.244601328E-2,2.107422985E-2,1.386075832E0
3.016208496E0,-1.382805467E0,1.550024934E-2,1.007897966E-2,1.382929066E0
3.018716413E0,-1.380362034E0,1.794363745E-2,3.970507067E-3,1.380484366E0
3.021224329E0,-1.386470556E0,2.672456671E-3,2.229592577E-2,1.386652391E0
3.023732194E0,-1.392579079E0,2.832804248E-2,3.084778599E-2,1.393208726E0
3.026240110E0,-1.385859728E0,1.916533336E-2,1.863084175E-2,1.386117457E0
3.028748027E0,-1.395633221E0,2.290677221E-4,2.718270384E-2,1.395897933E0
3.031255944E0,-1.404796004E0,1.733279042E-2,3.695625812E-2,1.405388916E0
3.033763860E0,-1.413958669E0,1.000262424E-2,7.635590620E-3,1.414014665E0
3.036271725E0,-1.417012930E0,2.344126441E-2,-3.054236295E-4,1.417206841E0
3.038779642E0,-1.418845415E0,2.038702741E-2,9.468132630E-3,1.419023463E0
3.041287558E0,-1.413958669E0,1.000262424E-2,2.779355086E-2,1.414267178E0
3.043795475E0,-1.382805467E0,3.138227761E-2,2.535016090E-2,1.383393811E0
3.046303392E0,-1.343711257E0,2.527380548E-2,3.970507067E-3,1.343954788E0
3.048811308E0,-1.306449533E0,8.170082234E-3,2.840439789E-2,1.306783816E0
3.051319173E0,-1.230093718E0,1.427855436E-2,2.107422985E-2,1.230357084E0
3.053827090E0,-1.194053650E0,1.366770733E-2,2.351761982E-2,1.194363430E0
3.056335006E0,-1.175728321E0,1.977618039E-2,2.473931387E-2,1.176154844E0
3.058842923E0,-1.159846187E0,1.550024934E-2,2.840439789E-2,1.160297481E0
3.061350840E0,-1.117086887E0,8.170082234E-3,2.351761982E-2,1.117364284E0
3.063858756E0,-1.076771021E0,1.488940232E-2,1.618745178E-2,1.076995617E0
3.066366621E0,-1.046228647E0,8.170082234E-3,1.557660475E-2,1.046376492E0
3.068874538E0,-1.013242841E0,1.244601328E-2,1.374406368E-2,1.013412481E0
3.071382454E0,-9.833113551E-1,1.305686031E-2,3.970507067E-3,9.834060543E-1
3.073890371E0,-9.607100487E-1,2.221956849E-2,3.054236295E-4,9.609670130E-1
3.076398288E0,-9.350544214E-1,1.733279042E-2,7.635590620E-3,9.352462237E-1
3.078906204E0,-9.032903910E-1,1.794363745E-2,1.435491070E-2,9.035826293E-1
3.081414121E0,-8.721371889E-1,1.672194339E-2,1.252236869E-2,8.723873620E-1
3.083921985E0,-8.452599049E-1,2.221956849E-2,6.413896102E-3,8.455762260E-1
3.086429902E0,-8.012788892E-1,1.550024934E-2,2.137965523E-3,8.014316483E-1
3.088937819E0,-7.389724851E-1,1.916533336E-2,-9.162708884E-4,7.392215387E-1
3.091445735E0,-6.711684465E-1,2.160872146E-2,-7.024743594E-3,6.715529521E-1
3.093953652E0,-6.058077812E-1,1.244601328E-2,-2.748812549E-3,6.059418512E-1
3.096461569E0,-5.410579443E-1,1.916533336E-2,-3.054236295E-4,5.413973609E-1
3.098969433E0,-4.665345848E-1,1.488940232E-2,-2.748812549E-3,4.667802149E-1
3.101477350E0,-3.883461356E-1,1.000262424E-2,-3.054236295E-4,3.884750530E-1
3.103985267E0,-3.046600819E-1,1.000262424E-2,2.137965523E-3,3.048317386E-1
3.106493183E0,-2.057028115E-1,7.559234742E-3,4.581354558E-3,2.058926358E-1
3.109001100E0,-1.036913246E-1,7.559234742E-3,9.162708884E-4,1.039705361E-1
3.111509017E0,6.261184346E-3,6.948387716E-3,-3.054236295E-4,9.358194530E-3
3.114016881E0,1.125486046E-1,3.283303929E-3,-9.162708884E-4,1.126002133E-1
3.116524798E0,2.139492482E-1,2.061609412E-3,-2.137965523E-3,2.139698622E-1
3.119032715E0,3.104631305E-1,6.948387716E-3,-5.192201585E-3,3.105842791E-1
3.121540631E0,3.990359604E-1,2.061609412E-3,-5.803049076E-3,3.990834792E-1
3.124048548E0,4.790569544E-1,2.672456671E-3,-5.803049076E-3,4.790995543E-1
3.126556465E0,5.541911721E-1,-5.879404955E-3,-1.191152167E-2,5.543503468E-1
3.129064329E0,6.226060390E-1,-8.322793990E-3,-1.374406368E-2,6.228133332E-1
3.131572246E0,6.788040400E-1,-9.544488043E-3,-1.068982668E-2,6.789552962E-1
3.134080163E0,7.264500856E-1,-7.101099472E-3,-8.246437646E-3,7.265315934E-1
3.136588079E0,7.673768401E-1,-1.259872504E-2,-6.413896102E-3,7.675070558E-1
3.139095996E0,8.009734750E-1,-5.268557463E-3,-6.413896102E-3,8.010164813E-1
3.141603913E0,8.309049606E-1,-1.626380906E-2,-5.803049076E-3,8.310843763E-1
3.144111777E0,8.565605879E-1,-1.443126611E-2,-6.413896102E-3,8.567061575E-1
3.146619694E0,8.816053271E-1,-1.320957206E-2,-6.413896102E-3,8.817276131E-1
3.149127610E0,9.048938751E-1,-1.382041909E-2,-8.246437646E-3,9.050369788E-1
3.151635527E0,9.256626368E-1,-1.565296017E-2,-1.068982668E-2,9.258566869E-1
3.154143444E0,9.409338236E-1,-1.504211407E-2,-1.374406368E-2,9.411544107E-1
3.156651360E0,9.598701000E-1,-8.322793990E-3,-1.374406368E-2,9.600045714E-1
3.159159225E0,9.849148393E-1,-1.137703005E-2,-1.252236869E-2,9.850601439E-1
3.161667142E0,1.015457153E0,-1.259872504E-2,-1.435491070E-2,1.015636757E0
3.164175058E0,1.050886393E0,-1.137703005E-2,-1.191152167E-2,1.051015476E0
3.166682975E0,1.087537169E0,-1.076618303E-2,-1.130067464E-2,1.087649167E0
3.169190892E0,1.124798894E0,-1.320957206E-2,-1.313321572E-2,1.124953122E0
3.171698808E0,1.160228014E0,-1.504211407E-2,-1.435491070E-2,1.160414311E0
3.174206673E0,1.196878791E0,-1.931804419E-2,-1.374406368E-2,1.197113581E0
3.176714590E0,1.232308030E0,-2.053973824E-2,-1.068982668E-2,1.232525551E0
3.179222506E0,1.262239456E0,-1.992889121E-2,-9.468132630E-3,1.262432276E0
3.181730423E0,1.283619165E0,-1.748550311E-2,-1.496575773E-2,1.283825486E0
3.184238340E0,1.304387927E0,-1.626380906E-2,-1.557660475E-2,1.304582311E0
3.186746256E0,1.319659114E0,-2.176143415E-2,-1.374406368E-2,1.319910086E0
3.189254173E0,1.303777099E0,-3.520007432E-2,-1.191152167E-2,1.304306579E0
3.191762038E0,1.295225263E0,-2.481566928E-2,-1.618745178E-2,1.295564098E0
3.194269954E0,1.286673427E0,-3.336753324E-2,-1.924168877E-2,1.287249837E0
3.196777871E0,1.273234725E0,-1.748550311E-2,-1.130067464E-2,1.273404929E0
3.199285788E0,1.254298449E0,-1.687465608E-2,-1.191152167E-2,1.254468508E0
3.201793704E0,1.224367023E0,-1.992889121E-2,-1.130067464E-2,1.224581346E0
3.204301621E0,1.177331686E0,-3.397838026E-2,-3.970507067E-3,1.177828593E0
3.206809485E0,1.116857886E0,-3.397838026E-2,-3.359660041E-3,1.117379683E0
3.209317402E0,1.052718878E0,-2.970244735E-2,-9.468132630E-3,1.053180382E0
3.211825319E0,1.000796914E0,-1.992889121E-2,-1.130067464E-2,1.001059104E0
3.214333235E0,9.342145324E-1,-1.809635013E-2,-2.748812549E-3,9.343938283E-1
3.216841152E0,8.522846103E-1,-2.237228118E-2,3.359660041E-3,8.525848129E-1
3.219349069E0,7.612683773E-1,-2.359397523E-2,-2.137965523E-3,7.616369141E-1
3.221856933E0,6.708629727E-1,-2.664821222E-2,-6.413896102E-3,6.714226638E-1
3.224364850E0,5.780141950E-1,-2.970244735E-2,3.054236295E-4,5.787769331E-1
3.226872767E0,4.753918648E-1,-3.031329438E-2,2.748812549E-3,4.763652767E-1
3.229380683E0,3.593308926E-1,-1.931804419E-2,-7.024743594E-3,3.599183577E-1
3.231888600E0,2.451024652E-1,-7.711946499E-3,-3.970507067E-3,2.452559020E-1
3.234396465E0,1.394258887E-1,-2.214321401E-3,-7.635590620E-3,1.396523680E-1
3.236904433E0,4.046862945E-2,-3.336753324E-2,1.985253580E-2,5.608230935E-2
3.239412298E0,-9.513945878E-2,-6.268820167E-2,7.727217674E-2,1.376674128E-1
3.241920215E0,-2.234173864E-1,-6.490251981E-3,2.779355086E-2,2.252330646E-1
3.244428131E0,-3.474193811E-1,-8.322793990E-3,-2.046338283E-2,3.481210211E-1
3.246936048E0,-4.561502039E-1,6.337540224E-3,-3.023693897E-2,4.571951940E-1
3.249443965E0,-5.777087808E-1,-9.544488043E-3,3.359660041E-3,5.777973866E-1
3.251951829E0,-7.249229550E-1,4.504998680E-3,2.046338283E-2,7.252257137E-1
3.254459746E0,-8.715263009E-1,-1.076618303E-2,8.857285604E-3,8.716378006E-1
3.256967663E0,-1.002858520E0,-1.259872504E-2,3.573456407E-2,1.003574062E0
3.259475579E0,-1.135412335E0,-4.657710437E-3,3.634541109E-2,1.136003457E0
3.261983496E0,-1.272853017E0,1.061347127E-2,7.024743594E-3,1.272916649E0
3.264491413E0,-1.402352571E0,2.954973653E-2,-2.137965523E-3,1.402665496E0
3.266999277E0,-1.484817028E0,3.504735976E-2,1.068982668E-2,1.485269065E0
3.269507194E0,-1.543458343E0,3.565821052E-2,1.801999472E-2,1.543975351E0
3.272015110E0,-1.582552552E0,1.977618039E-2,3.023693897E-2,1.582964924E0
3.274523027E0,-1.594158649E0,1.244601328E-2,3.268032894E-2,1.594542162E0
3.277030944E0,-1.589882731E0,8.780929260E-3,2.657185495E-2,1.590129010E0
3.279538860E0,-1.586828470E0,4.504998680E-3,1.557660475E-2,1.586911314E0
3.282046725E0,-1.592326045E0,2.466295846E-2,1.130067464E-2,1.592557126E0
3.284554642E0,-1.591104388E0,1.794363745E-2,1.068982668E-2,1.591241472E0
3.287062558E0,-1.589882731E0,2.954973653E-2,1.618745178E-2,1.590239705E0
3.289570475E0,-1.586828470E0,1.977618039E-2,1.801999472E-2,1.587054004E0
3.292078392E0,-1.583774209E0,3.260397166E-2,2.412846684E-2,1.584293517E0
3.294586308E0,-1.574611545E0,3.138227761E-2,1.618745178E-2,1.575007428E0
3.297094173E0,-1.555064440E0,3.199312463E-2,5.192201585E-3,1.555402177E0
3.299602090E0,-1.533684731E0,3.687990457E-2,-1.527118147E-3,1.534128845E0
3.302110006E0,-1.513526797E0,3.871244565E-2,-2.748812549E-3,1.514024298E0
3.304617923E0,-1.484206080E0,3.565821052E-2,1.527118147E-3,1.484635150E0
3.307125840E0,-1.449387789E0,4.115583375E-2,5.803049076E-3,1.449983600E0
3.309633756E0,-1.407239318E0,3.810159862E-2,1.191152167E-2,1.407805425E0
3.312141673E0,-1.357760787E0,3.260397166E-2,1.374406368E-2,1.358221732E0
3.314649538E0,-1.299730301E0,2.771719359E-2,1.007897966E-2,1.300064877E0
3.317157454E0,-1.236202121E0,2.221956849E-2,1.007897966E-2,1.236442873E0
3.319665371E0,-1.169008970E0,2.160872146E-2,8.857285604E-3,1.169242217E0
3.322173288E0,-1.099372387E0,1.916533336E-2,6.413896102E-3,1.099558135E0
3.324681204E0,-1.024238110E0,1.550024934E-2,1.252236869E-2,1.024431927E0
3.327189069E0,-9.484930634E-1,1.305686031E-2,1.496575773E-2,9.487009787E-1
3.329696985E0,-8.745805621E-1,1.611109637E-2,1.557660475E-2,8.748676229E-1
3.332204902E0,-7.988355160E-1,1.550024934E-2,1.374406368E-2,7.991040850E-1
3.334712819E0,-7.206470370E-1,8.780929260E-3,1.313321572E-2,7.208201843E-1
3.337220735E0,-6.497887969E-1,7.559234742E-3,9.468132630E-3,6.499017373E-1
3.339728652E0,-5.819846988E-1,6.337540224E-3,1.068982668E-2,5.821173648E-1
3.342236569E0,-5.184566379E-1,3.894151188E-3,1.130067464E-2,5.185944032E-1
3.344744485E0,-4.573718905E-1,8.399150101E-4,1.313321572E-2,4.575611796E-1
3.347252350E0,-4.030064642E-1,3.283303929E-3,1.374406368E-2,4.032541253E-1
3.349760267E0,-3.474193811E-1,-2.825168660E-3,1.374406368E-2,3.477026132E-1
3.352268183E0,-2.973299026E-1,-9.926267667E-4,1.496575773E-2,2.977079613E-1
3.354776100E0,-2.466295809E-1,-6.490251981E-3,1.007897966E-2,2.469207552E-1
3.357284017E0,-1.995943487E-1,-7.101099472E-3,8.246437646E-3,1.998908036E-1
3.359791881E0,-1.556133330E-1,-5.268557463E-3,6.413896102E-3,1.558345442E-1
3.362299798E0,-1.128540337E-1,-5.879404955E-3,8.246437646E-3,1.133075640E-1
3.364807715E0,-7.375980914E-2,-1.198787708E-2,9.468132630E-3,7.532505676E-2
3.367315631E0,-3.710897267E-2,-9.544488043E-3,8.857285604E-3,3.932714855E-2
3.369823548E0,1.374406274E-3,-4.046862945E-3,7.024743594E-3,8.222719433E-3
3.372331465E0,3.741439432E-2,-9.544488043E-3,5.803049076E-3,3.904624864E-2
3.374839329E0,7.223268598E-2,-1.382041909E-2,7.024743594E-3,7.387768222E-2
3.377347246E0,9.910997003E-2,-1.137703005E-2,3.970507067E-3,9.983981119E-2
3.379855163E0,1.192679256E-1,-1.626380906E-2,3.359660041E-3,1.204185903E-1
3.382363079E0,1.327065676E-1,-1.626380906E-2,5.192201585E-3,1.338002374E-1
3.384870996E0,1.443126649E-1,-1.931804419E-2,5.803049076E-3,1.457155018E-1
3.387378913E0,1.516428292E-1,-1.443126611E-2,6.413896102E-3,1.524629370E-1
3.389886777E0,1.577513069E-1,-1.259872504E-2,3.359660041E-3,1.582892606E-1
3.392394694E0,1.620272398E-1,-9.544488043E-3,3.054236295E-4,1.623084008E-1
3.394902610E0,1.656923145E-1,-1.137703005E-2,2.748812549E-3,1.661051952E-1
3.397410527E0,1.687465608E-1,-6.490251981E-3,4.581354558E-3,1.689334602E-1
3.399918444E0,1.687465608E-1,-1.320957206E-2,-9.162708884E-4,1.692652774E-1
3.402426360E0,1.638597846E-1,-7.711946499E-3,-1.527118147E-3,1.640482710E-1
3.404934277E0,1.540862173E-1,-1.137703005E-2,-3.359660041E-3,1.545421835E-1
3.407442142E0,1.412584335E-1,-9.544488043E-3,-4.581354558E-3,1.416546190E-1
3.409950058E0,1.235438585E-1,-3.436015919E-3,-2.137965523E-3,1.236101213E-1
3.412457975E0,1.058292910E-1,-7.711946499E-3,3.054236295E-4,1.061103494E-1
3.414965892E0,7.895200700E-2,-8.933641016E-3,-3.970507067E-3,7.955497644E-2
3.417473808E0,4.413371533E-2,-6.490251981E-3,-1.527118147E-3,4.463451904E-2
3.419981673E0,3.206948051E-3,-8.933641016E-3,-9.162708884E-4,9.535932569E-3
3.422489590E0,-4.138490185E-2,-5.268557463E-3,-2.137965523E-3,4.177366031E-2
3.424997506E0,-8.292251825E-2,1.450762269E-3,-3.359660041E-3,8.300322922E-2
3.427505423E0,-1.262926757E-1,1.450762269E-3,-5.803049076E-3,1.264342518E-1
3.430013340E0,-1.635543555E-1,7.559234742E-3,-7.635590620E-3,1.639068988E-1
3.432521256E0,-1.965401024E-1,4.504998680E-3,-5.192201585E-3,1.966602802E-1
3.435029173E0,-2.246390730E-1,3.283303929E-3,-5.192201585E-3,2.247230566E-1
3.437537038E0,-2.496838123E-1,1.000262424E-2,-4.581354558E-3,2.499260839E-1
3.440044954E0,-2.692309320E-1,1.061347127E-2,-3.359660041E-3,2.694609950E-1
3.442552871E0,-2.845021188E-1,1.000262424E-2,-4.581354558E-3,2.847147641E-1
3.445060788E0,-2.961082160E-1,7.559234742E-3,-9.162708884E-4,2.962061059E-1
3.447568704E0,-3.034383655E-1,6.337540224E-3,3.054236295E-4,3.035046941E-1
3.450076569E0,-3.083251417E-1,1.183516532E-2,1.527118147E-3,3.085559855E-1
3.452584485E0,-3.064926267E-1,8.780929260E-3,9.162708884E-4,3.066197555E-1
3.455092402E0,-3.003841341E-1,8.170082234E-3,3.359660041E-3,3.005140023E-1
3.457600319E0,-2.893888950E-1,8.170082234E-3,3.054236295E-4,2.895043628E-1
3.460108235E0,-2.741177082E-1,1.244601328E-2,2.748812549E-3,2.744138793E-1
3.462616152E0,-2.539597452E-1,2.061609412E-3,3.359660041E-3,2.539903339E-1
3.465124017E0,-2.338017821E-1,2.672456671E-3,5.803049076E-3,2.338890565E-1
3.467631933E0,-2.075353563E-1,5.726693198E-3,2.748812549E-3,2.076325483E-1
3.470139850E0,-1.806580722E-1,6.337540224E-3,9.162708884E-4,1.807715216E-1
3.472647767E0,-1.519482583E-1,6.337540224E-3,4.581354558E-3,1.521493556E-1
3.475155683E0,-1.244601309E-1,3.894151188E-3,3.359660041E-3,1.245663515E-1
3.477663600E0,-9.880454093E-2,2.672456671E-3,-3.054236295E-4,9.884114840E-2
3.480171465E0,-7.498150319E-2,1.450762269E-3,2.748812549E-3,7.504589597E-2
3.482679381E0,-5.054761097E-2,4.504998680E-3,2.748812549E-3,5.082235687E-2
3.485187298E0,-2.672456764E-2,2.290677221E-4,2.137965523E-3,2.681092844E-2
3.487695215E0,-4.734066315E-3,-2.214321401E-3,3.359660041E-3,6.213044240E-3
3.490203131E0,1.847812906E-2,2.290677221E-4,7.024743594E-3,1.976969267E-2
3.492711048E0,3.863608837E-2,2.672456671E-3,2.137965523E-3,3.878737225E-2
3.495218965E0,5.635065958E-2,8.399150101E-4,3.359660041E-3,5.645697130E-2
3.497726881E0,7.040014863E-2,3.283303929E-3,5.803049076E-3,7.071517794E-2
3.500234746E0,8.444963396E-2,8.399150101E-4,5.192201585E-3,8.461326781E-2
3.502742663E0,9.849911928E-2,-2.214321401E-3,2.137965523E-3,9.854719994E-2
3.505250579E0,1.082726792E-1,8.399150101E-4,5.192201585E-3,1.084003573E-1
3.507758496E0,1.192679256E-1,-2.214321401E-3,9.162708884E-4,1.192919983E-1
3.510266413E0,1.296523362E-1,2.290677221E-4,2.137965523E-3,1.296701649E-1
3.512774277E0,1.375933439E-1,2.290677221E-4,3.970507067E-3,1.376508106E-1
3.515282194E0,1.449235082E-1,-1.603474026E-3,2.137965523E-3,1.449481467E-1
3.517790110E0,1.516428292E-1,2.290677221E-4,3.054236295E-4,1.516433098E-1
3.520298027E0,1.553079188E-1,-5.268557463E-3,3.054236295E-4,1.553975567E-1
3.522805944E0,1.565296054E-1,-3.436015919E-3,3.359660041E-3,1.566033553E-1
3.525313860E0,1.516428292E-1,-3.817795368E-4,3.359660041E-3,1.516805219E-1
3.527821725E0,1.473668963E-1,-2.214321401E-3,1.527118147E-3,1.473914429E-1
3.530329642E0,1.406475753E-1,-4.046862945E-3,2.137965523E-3,1.407220254E-1
3.532837558E0,1.272089481E-1,-2.825168660E-3,3.054236295E-4,1.272406828E-1
3.535345475E0,1.143811494E-1,-4.657710437E-3,9.162708884E-4,1.144796102E-1
3.537853392E0,1.009425074E-1,-2.825168660E-3,-9.162708884E-4,1.009861918E-1
3.540361308E0,8.567132801E-2,-6.490251981E-3,2.137965523E-3,8.594341575E-2
3.542869225E0,6.612421572E-2,-3.817795368E-4,2.748812549E-3,6.618242690E-2
3.545377090E0,5.024218559E-2,-2.825168660E-3,1.527118147E-3,5.034472049E-2
3.547885006E0,3.374931216E-2,-4.657710437E-3,3.054236295E-4,3.407056826E-2
3.550392923E0,1.847812906E-2,2.290677221E-4,2.748812549E-3,1.868287173E-2
3.552900840E0,3.206948051E-3,-8.933641016E-3,3.054236295E-4,9.496722656E-3
3.555408756E0,-1.023169141E-2,-5.879404955E-3,9.162708884E-4,1.183615073E-2
3.557916621E0,-2.428117767E-2,2.290677221E-4,9.162708884E-4,2.429953937E-2
3.560424538E0,-3.588727489E-2,-2.825168660E-3,3.054236295E-4,3.599960223E-2
3.562932454E0,-4.932591692E-2,-9.926267667E-4,1.527118147E-3,4.935953279E-2
3.565440371E0,-6.215370819E-2,2.290677221E-4,2.748812549E-3,6.221488475E-2
3.567948288E0,-7.253811508E-2,-4.046862945E-3,-3.054236295E-4,7.265155555E-2
3.570456204E0,-8.414421231E-2,8.399150101E-4,2.137965523E-3,8.417555951E-2
3.572964121E0,-9.697200358E-2,1.450762269E-3,3.054236295E-4,9.698333606E-2
3.575471985E0,-1.085781008E-1,-4.046862945E-3,3.054236295E-4,1.086539201E-1
3.577979902E0,-1.189625040E-1,3.283303929E-3,3.054236295E-4,1.190081960E-1
3.580487819E0,-1.281252056E-1,-9.926267667E-4,3.970507067E-3,1.281905556E-1
3.582995735E0,-1.342336833E-1,-2.214321401E-3,4.581354558E-3,1.343300926E-1
3.585503652E0,-1.427855492E-1,1.450762269E-3,2.137965523E-3,1.428089236E-1
3.588011569E0,-1.464506239E-1,-1.603474026E-3,2.748812549E-3,1.464851949E-1
3.590519433E0,-1.525591016E-1,-5.268557463E-3,9.162708884E-4,1.526527980E-1
3.593027350E0,-1.598892659E-1,-9.926267667E-4,2.137965523E-3,1.599066401E-1
3.595535267E0,-1.702736765E-1,-3.436015919E-3,2.137965523E-3,1.703217603E-1
3.598043183E0,-1.824906170E-1,-4.657710437E-3,2.137965523E-3,1.825625659E-1
3.600551100E0,-1.959292591E-1,1.450762269E-3,9.162708884E-4,1.959367725E-1
3.603059017E0,-2.112004459E-1,-3.817795368E-4,3.359660041E-3,2.112275110E-1
3.605566881E0,-2.240282297E-1,-2.214321401E-3,3.359660041E-3,2.240643618E-1
3.608074798E0,-2.423536479E-1,2.061609412E-3,4.581354558E-3,2.424057130E-1
3.610582715E0,-2.600682080E-1,-2.825168660E-3,5.192201585E-3,2.601353750E-1
3.613090631E0,-2.802261710E-1,-9.926267667E-4,5.803049076E-3,2.802880083E-1
3.615598548E0,-2.991624475E-1,-5.268557463E-3,4.581354558E-3,2.992439080E-1
3.618106465E0,-3.199312389E-1,-3.817795368E-4,5.803049076E-3,3.199840914E-1
3.620614329E0,-3.400892019E-1,2.290677221E-4,3.359660041E-3,3.401058733E-1
3.623122246E0,-3.614688516E-1,8.399150101E-4,5.803049076E-3,3.615164056E-1
3.625630163E0,-3.804051280E-1,8.399150101E-4,3.970507067E-3,3.804267759E-1
3.628138079E0,-4.036173224E-1,2.290677221E-4,5.192201585E-3,4.036507827E-1
3.630645996E0,-4.256078303E-1,1.450762269E-3,3.359660041E-3,4.256235628E-1
3.633153913E0,-4.457657933E-1,1.450762269E-3,4.581354558E-3,4.457916958E-1
3.635661777E0,-4.622586668E-1,-9.926267667E-4,2.748812549E-3,4.622679053E-1
3.638169694E0,-4.787515402E-1,4.504998680E-3,3.970507067E-3,4.787891991E-1
3.640677610E0,-4.921901822E-1,8.399150101E-4,7.024743594E-3,4.922410263E-1
3.643185527E0,-5.050179958E-1,7.559234742E-3,7.635590620E-3,5.051322801E-1
3.645693444E0,-5.117372870E-1,2.672456671E-3,7.024743594E-3,5.117924775E-1
3.648201360E0,-5.190674663E-1,2.672456671E-3,7.024743594E-3,5.191218774E-1
3.650709225E0,-5.263976455E-1,5.726693198E-3,5.803049076E-3,5.264607787E-1
3.653217142E0,-5.318952799E-1,8.170082234E-3,7.024743594E-3,5.320044041E-1
3.655725058E0,-5.373928547E-1,4.504998680E-3,7.024743594E-3,5.374576470E-1
3.658232975E0,-5.428904891E-1,6.948387716E-3,7.024743594E-3,5.429803958E-1
3.660740892E0,-5.514423847E-1,7.559234742E-3,7.024743594E-3,5.515389313E-1
3.663248808E0,-5.581616759E-1,5.726693198E-3,5.192201585E-3,5.582152008E-1
3.665756725E0,-5.673243999E-1,6.337540224E-3,8.246437646E-3,5.674197238E-1
3.668264590E0,-5.758762360E-1,5.115845706E-3,8.246437646E-3,5.759579974E-1
3.670772506E0,-5.880932212E-1,5.726693198E-3,8.857285604E-3,5.881877960E-1
3.673280423E0,-5.990884304E-1,9.391776286E-3,7.635590620E-3,5.992106935E-1
3.675788340E0,-6.125270724E-1,5.726693198E-3,7.635590620E-3,6.126014297E-1
3.678296256E0,-6.241331697E-1,8.170082234E-3,7.635590620E-3,6.242333425E-1
3.680804121E0,-6.320741773E-1,6.948387716E-3,5.803049076E-3,6.321390045E-1
3.683312038E0,-6.381826997E-1,9.391776286E-3,7.024743594E-3,6.382904595E-1
3.685819954E0,-6.418477297E-1,8.170082234E-3,7.024743594E-3,6.419381632E-1
3.688327871E0,-6.442911625E-1,6.948387716E-3,7.635590620E-3,6.443738700E-1
3.690835788E0,-6.436802745E-1,5.115845706E-3,8.857285604E-3,6.437615390E-1
3.693343704E0,-6.400152445E-1,5.726693198E-3,1.068982668E-2,6.401301279E-1
3.695851621E0,-6.381826997E-1,1.366770733E-2,6.413896102E-3,6.383612633E-1
3.698359485E0,-6.314633489E-1,7.559234742E-3,8.246437646E-3,6.315624330E-1
3.700867402E0,-6.229115129E-1,4.504998680E-3,1.068982668E-2,6.230195184E-1
3.703375319E0,-6.106945276E-1,8.170082234E-3,8.857285604E-3,6.108133985E-1
3.705883235E0,-5.996993184E-1,1.000262424E-2,8.857285604E-3,5.998481279E-1
3.708391152E0,-5.838172436E-1,4.504998680E-3,5.803049076E-3,5.838634637E-1
3.710899069E0,-5.703786016E-1,5.115845706E-3,5.192201585E-3,5.704251747E-1
3.713406933E0,-5.575508475E-1,7.559234742E-3,5.803049076E-3,5.576322847E-1
3.715914850E0,-5.447230339E-1,4.504998680E-3,5.803049076E-3,5.447725709E-1
3.718422767E0,-5.325061083E-1,6.337540224E-3,5.192201585E-3,5.325691305E-1
3.720930683E0,-5.209000111E-1,3.283303929E-3,4.581354558E-3,5.209305044E-1
3.723438600E0,-5.080721974E-1,5.115845706E-3,7.024743594E-3,5.081465111E-1
3.725946517E0,-4.952444136E-1,6.948387716E-3,5.803049076E-3,4.953271492E-1
3.728454433E0,-4.811949134E-1,3.894151188E-3,6.413896102E-3,4.812534126E-1
3.730962298E0,-4.653128982E-1,5.726693198E-3,4.581354558E-3,4.653706878E-1
3.733470215E0,-4.500417113E-1,1.450762269E-3,7.635590620E-3,4.501088189E-1
3.735978131E0,-4.341596961E-1,4.504998680E-3,2.137965523E-3,4.341883320E-1
3.738486048E0,-4.170559645E-1,4.504998680E-3,2.748812549E-3,4.170893531E-1
3.740993965E0,-3.975088596E-1,5.115845706E-3,6.413896102E-3,3.975935153E-1
3.743501881E0,-3.773508966E-1,6.337540224E-3,5.803049076E-3,3.774487236E-1
3.746009746E0,-3.559712470E-1,4.504998680E-3,2.137965523E-3,3.560061721E-1
3.748517663E0,-3.370349705E-1,3.283303929E-3,3.970507067E-3,3.370743484E-1
3.751025579E0,-3.180987239E-1,-9.926267667E-4,5.192201585E-3,3.181426447E-1
3.753533496E0,-3.028275371E-1,6.948387716E-3,4.581354558E-3,3.029418857E-1
3.756041413E0,-2.875563502E-1,2.672456671E-3,4.581354558E-3,2.876052597E-1
3.758549329E0,-2.704526186E-1,4.504998680E-3,3.970507067E-3,2.705192763E-1
3.761057194E0,-2.521272004E-1,8.780929260E-3,9.162708884E-4,2.522817263E-1
3.763565110E0,-2.319692522E-1,2.672456671E-3,1.527118147E-3,2.319896724E-1
3.766073027E0,-2.136438340E-1,2.061609412E-3,1.527118147E-3,2.136592383E-1
3.768580944E0,-1.953184158E-1,4.504998680E-3,-3.054236295E-4,1.953706012E-1
3.771088860E0,-1.745496094E-1,1.450762269E-3,-3.054236295E-4,1.745559055E-1
3.773596777E0,-1.543916464E-1,6.337540224E-3,-3.054236295E-4,1.545219666E-1
3.776104642E0,-1.305686086E-1,5.115845706E-3,-9.162708884E-4,1.306720054E-1
3.778612558E0,-1.104106456E-1,4.504998680E-3,2.748812549E-3,1.105366982E-1
3.781120475E0,-9.208522737E-2,5.726693198E-3,3.054236295E-4,9.226362988E-2
3.783628392E0,-7.620319724E-2,3.283303929E-3,-3.054236295E-4,7.627450844E-2
3.786136308E0,-5.909947306E-2,6.948387716E-3,9.162708884E-4,5.951358971E-2
3.788644173E0,-4.077405483E-2,3.894151188E-3,-9.162708884E-4,4.096983662E-2
3.791152090E0,-2.367033064E-2,5.115845706E-3,-3.054236295E-4,2.421878844E-2
3.793660006E0,-9.620844387E-3,3.894151188E-3,-3.054236295E-4,1.038356123E-2
3.796167923E0,1.374406274E-3,7.559234742E-3,9.162708884E-4,7.737607824E-3
3.798675840E0,8.704573847E-3,6.337540224E-3,-2.748812549E-3,1.111260511E-2
3.801183756E0,1.786728203E-2,6.948387716E-3,3.054236295E-4,1.917324028E-2
3.803691673E0,2.153236605E-2,8.170082234E-3,9.162708884E-4,2.304848333E-2
3.806199590E0,2.458660305E-2,7.559234742E-3,2.748812549E-3,2.586888188E-2
3.808707454E0,2.580829710E-2,7.559234742E-3,2.137965523E-3,2.697741881E-2
3.811215371E0,2.764083818E-2,6.337540224E-3,1.527118147E-3,2.839916268E-2
3.813723288E0,2.702999115E-2,5.115845706E-3,2.137965523E-3,2.759281058E-2
3.816231204E0,2.641914412E-2,4.504998680E-3,3.054236295E-4,2.680222888E-2
3.818739121E0,2.275406010E-2,5.115845706E-3,9.162708884E-4,2.334006600E-2
3.821247038E0,1.664558798E-2,5.115845706E-3,3.054236295E-4,1.741668051E-2
3.823754902E0,9.315420873E-3,3.283303929E-3,-9.162708884E-4,9.919511232E-3
3.826262819E0,1.985253533E-3,5.726693198E-3,-9.162708884E-4,6.129910188E-3
3.828770735E0,-1.023169141E-2,6.948387716E-3,9.162708884E-4,1.240190120E-2
3.831278652E0,-4.260659590E-2,6.948387716E-3,-2.748812549E-3,4.325688473E-2
3.833786569E0,-9.208522737E-2,7.559234742E-3,2.137965523E-3,9.241970583E-2
3.836294485E0,-1.348445266E-1,7.559234742E-3,2.748812549E-3,1.350842121E-1
3.838802350E0,-1.598892659E-1,1.061347127E-2,4.581354558E-3,1.603066185E-1
3.841310267E0,-1.794363856E-1,8.399150101E-4,2.137965523E-3,1.794510876E-1
3.843818183E0,-2.105895877E-1,4.504998680E-3,4.581354558E-3,2.106875845E-1
3.846326100E0,-2.350234836E-1,3.283303929E-3,5.192201585E-3,2.351037577E-1
3.848834017E0,-2.533488870E-1,6.948387716E-3,1.527118147E-3,2.534487536E-1
3.851341881E0,-2.661767006E-1,4.504998680E-3,1.527118147E-3,2.662192011E-1
3.853849798E0,-2.753393948E-1,5.726693198E-3,1.527118147E-3,2.754031762E-1
3.856357715E0,-2.783936262E-1,2.061609412E-3,-3.054236295E-4,2.784014271E-1
3.858865631E0,-2.777827978E-1,5.115845706E-3,1.527118147E-3,2.778340993E-1
3.861373548E0,-2.783936262E-1,2.061609412E-3,2.748812549E-3,2.784148296E-1
3.863881465E0,-2.808370292E-1,1.427855436E-2,5.192201585E-3,2.812477076E-1
3.866389381E0,-2.783936262E-1,5.726693198E-3,2.748812549E-3,2.784660879E-1
3.868897246E0,-2.722851634E-1,5.726693198E-3,4.581354558E-3,2.723839093E-1
3.871405163E0,-2.619007528E-1,2.672456671E-3,3.970507067E-3,2.619444813E-1
3.873913079E0,-2.484621257E-1,-3.817795368E-4,9.162708884E-4,2.484641085E-1
3.876420996E0,-2.368560284E-1,-3.817795368E-4,1.527118147E-3,2.368612591E-1
3.878928913E0,-2.215848416E-1,-1.603474026E-3,9.162708884E-4,2.215925376E-1
3.881436829E0,-2.099787444E-1,3.894151188E-3,3.970507067E-3,2.100523802E-1
3.883944746E0,-1.953184158E-1,5.115845706E-3,3.359660041E-3,1.954142849E-1
3.886452610E0,-1.788255423E-1,-3.817795368E-4,3.054236295E-4,1.788262107E-1
3.888960527E0,-1.641651988E-1,2.290677221E-4,3.359660041E-3,1.641997329E-1
3.891468444E0,-1.470614821E-1,8.399150101E-4,9.162708884E-4,1.470667349E-1
3.893976360E0,-1.305686086E-1,-3.436015919E-3,2.137965523E-3,1.306313081E-1
3.896484277E0,-1.134648770E-1,-3.436015919E-3,2.748812549E-3,1.135501673E-1
3.898992142E0,-9.941539168E-2,-4.657710437E-3,2.748812549E-3,9.956239421E-2
3.901500058E0,-8.414421231E-2,-6.490251981E-3,2.748812549E-3,8.443889984E-2
3.904007975E0,-7.314895838E-2,-7.711946499E-3,2.748812549E-3,7.360570767E-2
3.906515892E0,-6.642963737E-2,-9.926267667E-4,3.054236295E-4,6.643775518E-2
3.909023808E0,-6.154286116E-2,-2.825168660E-3,3.054236295E-4,6.160842979E-2
3.911531725E0,-5.665608495E-2,-8.933641016E-3,-9.162708884E-4,5.736341566E-2
3.914039590E0,-5.971032009E-2,2.290677221E-4,1.527118147E-3,5.973028450E-2
3.916547506E0,-6.459710002E-2,-4.657710437E-3,3.054236295E-4,6.476552232E-2
3.919055423E0,-7.009471953E-2,-1.076618303E-2,-9.162708884E-4,7.092263359E-2
3.921563340E0,-8.292251825E-2,-9.926267667E-4,2.748812549E-3,8.297400383E-2
3.924071256E0,-9.697200358E-2,-2.825168660E-3,1.527118147E-3,9.702516759E-2
3.926579173E0,-1.110214889E-1,-3.817795368E-4,2.137965523E-3,1.110427289E-1
3.929087090E0,-1.275143623E-1,-9.926267667E-4,-1.527118147E-3,1.275273696E-1
3.931594954E0,-1.415638477E-1,-2.214321401E-3,3.054236295E-4,1.415814941E-1
3.934102871E0,-1.574458778E-1,-9.926267667E-4,1.527118147E-3,1.574564125E-1
3.936610788E0,-1.733279079E-1,-9.926267667E-4,3.054236295E-4,1.733310193E-1
3.939118704E0,-1.843231618E-1,-3.817795368E-4,-3.054236295E-4,1.843238103E-1
3.941626621E0,-1.947075576E-1,-3.817795368E-4,1.527118147E-3,1.947139204E-1
3.944134538E0,-1.995943487E-1,2.672456671E-3,3.054236295E-4,1.996124729E-1
3.946642402E0,-2.020377368E-1,4.504998680E-3,-9.162708884E-4,2.020900335E-1
3.949150319E0,-2.014268786E-1,3.283303929E-3,-9.162708884E-4,2.014557198E-1
3.951658235E0,-1.995943487E-1,5.115845706E-3,-3.054236295E-4,1.996601342E-1
3.954166152E0,-1.940967143E-1,8.399150101E-4,-1.527118147E-3,1.941045389E-1
3.956674069E0,-1.910424829E-1,2.061609412E-3,-9.162708884E-4,1.910558035E-1
3.959181985E0,-1.892099380E-1,3.894151188E-3,-2.137965523E-3,1.892620827E-1
3.961689902E0,-1.873773932E-1,7.559234742E-3,9.162708884E-4,1.875320481E-1
3.964197767E0,-1.812689304E-1,5.115845706E-3,-9.162708884E-4,1.813434216E-1
3.966705683E0,-1.721062213E-1,2.061609412E-3,-2.748812549E-3,1.721405171E-1
3.969213600E0,-1.635543555E-1,6.948387716E-3,-9.162708884E-4,1.637044497E-1
3.971721517E0,-1.513374150E-1,7.559234742E-3,3.054236295E-4,1.515263953E-1
3.974229433E0,-1.342336833E-1,2.672456671E-3,-1.527118147E-3,1.342689683E-1
3.976737350E0,-1.140757278E-1,3.283303929E-3,-2.137965523E-3,1.141429921E-1
3.979245215E0,-9.391776472E-2,3.894151188E-3,-2.137965523E-3,9.402277299E-2
3.981753131E0,-7.009471953E-2,2.061609412E-3,-3.054236295E-4,7.012569588E-2
3.984261048E0,-4.566083103E-2,5.115845706E-3,-9.162708884E-4,4.595566255E-2
3.986768965E0,-2.061609551E-2,9.391776286E-3,1.527118147E-3,2.270596719E-2
3.989276881E0,5.650337320E-3,2.061609412E-3,-2.137965523E-3,6.383372288E-3
3.991784798E0,3.374931216E-2,8.399150101E-4,-2.748812549E-3,3.387148504E-2
3.994292663E0,5.879404768E-2,-3.436015919E-3,-3.359660041E-3,5.899011412E-2
3.996800579E0,8.078455180E-2,8.399150101E-4,-3.359660041E-3,8.085874462E-2
3.999308496E0,1.046075895E-1,-9.926267667E-4,-2.137965523E-3,1.046341435E-1
4.001816413E0,1.253764033E-1,2.672456671E-3,-2.137965523E-3,1.254231057E-1
4.004324329E0,1.473668963E-1,-1.603474026E-3,-1.527118147E-3,1.473835314E-1
4.006832246E0,1.675248593E-1,8.399150101E-4,-2.137965523E-3,1.675406065E-1
4.009340110E0,1.895153672E-1,-9.926267667E-4,-2.137965523E-3,1.895300256E-1
4.011848027E0,2.121167034E-1,1.450762269E-3,-1.527118147E-3,2.121271615E-1
4.014355944E0,2.310529798E-1,2.290677221E-4,-4.581354558E-3,2.310985088E-1
4.016863860E0,2.518217862E-1,-4.657710437E-3,-5.192201585E-3,2.519183701E-1
4.019371777E0,2.713688910E-1,-9.926267667E-4,-3.970507067E-3,2.713997517E-1
4.021879694E0,2.854183912E-1,-3.436015919E-3,-3.970507067E-3,2.854666866E-1
4.024387558E0,2.982461751E-1,-2.825168660E-3,-2.748812549E-3,2.982722221E-1
4.026895475E0,3.092414141E-1,-1.603474026E-3,-4.581354558E-3,3.092795048E-1
4.029403392E0,3.171824515E-1,-9.926267667E-4,-3.970507067E-3,3.172088551E-1
4.031911308E0,3.263451457E-1,-5.879404955E-3,-6.413896102E-3,3.264611150E-1
4.034419225E0,3.330644667E-1,8.399150101E-4,-5.803049076E-3,3.331160756E-1
4.036927142E0,3.373403847E-1,-5.879404955E-3,-5.803049076E-3,3.374415178E-1
4.039435006E0,3.434488773E-1,-9.544488043E-3,-4.581354558E-3,3.436120158E-1
4.041942923E0,3.495573401E-1,-1.603474026E-3,-5.803049076E-3,3.496091826E-1
4.044450840E0,3.556658030E-1,-8.322793990E-3,-5.803049076E-3,3.558104940E-1
4.046958756E0,3.617742956E-1,-6.490251981E-3,-7.024743594E-3,3.619006926E-1
4.049466673E0,3.678827584E-1,-9.926267667E-4,-6.413896102E-3,3.679400050E-1
4.051974590E0,3.752129376E-1,-3.436015919E-3,-3.359660041E-3,3.752437102E-1
4.054482506E0,3.776563108E-1,-4.046862945E-3,-6.413896102E-3,3.777324506E-1
4.056990371E0,3.831539452E-1,-7.101099472E-3,-6.413896102E-3,3.832734134E-1
4.059498288E0,3.880407214E-1,-7.101099472E-3,-7.024743594E-3,3.881692596E-1
4.062006204E0,3.898732662E-1,-7.711946499E-3,-6.413896102E-3,3.900022768E-1
4.064514121E0,3.923166394E-1,-5.268557463E-3,-5.803049076E-3,3.923949269E-1
4.067022038E0,3.935383558E-1,-7.101099472E-3,-7.635590620E-3,3.936764730E-1
4.069529954E0,3.923166394E-1,-8.322793990E-3,-3.359660041E-3,3.924192933E-1
4.072037819E0,3.941491842E-1,-4.657710437E-3,-4.581354558E-3,3.942033263E-1
4.074545735E0,3.923166394E-1,-3.436015919E-3,-5.192201585E-3,3.923660418E-1
4.077053652E0,3.923166394E-1,-8.933641016E-3,-3.970507067E-3,3.924384288E-1
4.079561569E0,3.886515796E-1,-3.436015919E-3,-4.581354558E-3,3.886937681E-1
4.082069485E0,3.862081766E-1,-5.879404955E-3,-5.192201585E-3,3.862878228E-1
4.084577402E0,3.849864900E-1,-6.490251981E-3,-5.803049076E-3,3.850849208E-1
4.087085267E0,3.825430870E-1,-4.046862945E-3,-4.581354558E-3,3.825919227E-1
4.089593183E0,3.794888556E-1,-6.490251981E-3,-5.803049076E-3,3.795887120E-1
4.092101100E0,3.788780272E-1,-9.544488043E-3,-3.970507067E-3,3.790190255E-1
4.094609017E0,3.746020794E-1,-7.711946499E-3,-3.359660041E-3,3.746965163E-1
4.097116933E0,3.727695346E-1,-6.490251981E-3,-4.581354558E-3,3.728541781E-1
4.099624850E0,3.691044450E-1,-5.268557463E-3,-5.192201585E-3,3.691785584E-1
4.102132715E0,3.678827584E-1,-3.436015919E-3,-3.359660041E-3,3.679141441E-1
4.104640631E0,3.691044450E-1,-3.436015919E-3,-6.413896102E-3,3.691761579E-1
4.107148548E0,3.684936166E-1,-6.490251981E-3,-5.192201585E-3,3.685873408E-1
4.109656465E0,3.715478480E-1,-4.046862945E-3,-8.246437646E-3,3.716613838E-1
4.112164381E0,3.739912212E-1,-2.214321401E-3,-5.192201585E-3,3.740338163E-1
4.114672298E0,3.782671690E-1,-8.933641016E-3,-7.024743594E-3,3.784378524E-1
4.117180163E0,3.837648034E-1,-8.322793990E-3,-7.024743594E-3,3.839193148E-1
4.119688079E0,3.874298632E-1,-7.101099472E-3,-7.635590620E-3,3.875701572E-1
4.122195996E0,3.947600424E-1,-4.657710437E-3,-5.192201585E-3,3.948216614E-1
4.124703913E0,4.039227366E-1,-4.657710437E-3,-3.970507067E-3,4.039691032E-1
4.127211829E0,4.155288339E-1,-4.657710437E-3,-5.192201585E-3,4.155873735E-1
4.129719746E0,4.301891923E-1,-2.825168660E-3,-7.024743594E-3,4.302558190E-1
4.132227663E0,4.466820657E-1,-4.046862945E-3,-8.857285604E-3,4.467882009E-1
4.134735527E0,4.656183124E-1,-2.214321401E-3,-7.024743594E-3,4.656765648E-1
4.137243444E0,4.876088202E-1,-7.711946499E-3,-7.024743594E-3,4.877203940E-1
4.139751360E0,5.059342384E-1,-2.825168660E-3,-1.007897966E-2,5.060425091E-1
4.142259277E0,5.273138881E-1,-7.711946499E-3,-8.246437646E-3,5.274347490E-1
4.144767194E0,5.505260825E-1,-9.544488043E-3,-7.024743594E-3,5.506536223E-1
4.147275110E0,5.688515306E-1,-8.322793990E-3,-9.468132630E-3,5.689911935E-1
4.149782975E0,5.902311802E-1,-7.101099472E-3,-9.468132630E-3,5.903498261E-1
