"Time (s)","Gyroscope x (rad/s)","Gyroscope y (rad/s)","Gyroscope z (rad/s)","Absolute (rad/s)"
1.241527170E-1,4.039227590E-2,-5.344913807E-4,4.657710437E-3,4.066344673E-2
1.267129250E-1,4.039227590E-2,6.872031372E-4,-1.450762269E-3,4.042416247E-2
1.292730290E-1,3.917058185E-2,4.963133950E-3,-4.504998680E-3,3.973993198E-2
1.318330810E-1,4.100312293E-2,-1.756185899E-3,-6.948387716E-3,4.162475670E-2
1.343930810E-1,3.917058185E-2,7.635590737E-5,-5.726693198E-3,3.958706010E-2
1.369530290E-1,3.855973482E-2,2.519744914E-3,-4.504998680E-3,3.890369233E-2
1.395129250E-1,3.611634299E-2,4.352286924E-3,-8.399150101E-4,3.638733419E-2
1.420727690E-1,3.550549597E-2,1.298050396E-3,-2.061609412E-3,3.558897880E-2
1.446325610E-1,3.733803704E-2,-1.145338640E-3,-8.399150101E-4,3.736504072E-2
1.471923000E-1,3.489464894E-2,6.872031372E-4,1.603474026E-3,3.493822980E-2
1.497440710E-1,3.489464894E-2,2.519744914E-3,3.436015919E-3,3.515383115E-2
1.522519360E-1,3.428380191E-2,3.741439432E-3,4.657710437E-3,3.480045559E-2
1.547598520E-1,3.367295489E-2,6.872031372E-4,6.490251981E-3,3.429961384E-2
1.572677690E-1,3.061871976E-2,3.130592173E-3,4.046862945E-3,3.104325541E-2
1.597756860E-1,3.122956678E-2,5.573981442E-3,9.926267667E-4,3.173862660E-2
1.622836020E-1,3.184041381E-2,1.298050396E-3,-1.450762269E-3,3.189986830E-2
1.647915190E-1,3.061871976E-2,-1.756185899E-3,-2.061609412E-3,3.073825665E-2
1.672994360E-1,2.939702384E-2,1.908897655E-3,-3.283303929E-3,2.964133913E-2
1.698074040E-1,2.756448276E-2,6.872031372E-4,-8.399150101E-4,2.758583722E-2
1.723152690E-1,2.756448276E-2,1.908897655E-3,-2.061609412E-3,2.770730650E-2
1.748232380E-1,2.634278871E-2,3.741439432E-3,-1.450762269E-3,2.664668079E-2
1.773311540E-1,2.634278871E-2,-1.756185899E-3,-8.399150101E-4,2.641462026E-2
1.798390710E-1,2.512109280E-2,7.635590737E-5,9.926267667E-4,2.514081227E-2
1.823469880E-1,2.451024577E-2,-5.344913807E-4,9.926267667E-4,2.453615978E-2
1.848549040E-1,2.023431472E-2,4.963133950E-3,3.817795368E-4,2.083760895E-2
1.873628210E-1,2.084516361E-2,-1.145338640E-3,2.825168660E-3,2.106689879E-2
1.898707380E-1,1.718007959E-2,4.963133950E-3,3.436015919E-3,1.820972374E-2
1.923786540E-1,1.656923257E-2,1.298050396E-3,2.825168660E-3,1.685840979E-2
1.948865710E-1,1.595838554E-2,-5.344913807E-4,3.817795368E-4,1.597189738E-2
1.973944880E-1,1.656923257E-2,3.741439432E-3,-2.290677221E-4,1.698794599E-2
1.999024040E-1,1.534753758E-2,6.872031372E-4,-3.894151188E-3,1.584877193E-2
2.024103210E-1,1.290414855E-2,-2.367033157E-3,-8.399150101E-4,1.314630568E-2
2.049182380E-1,1.046075951E-2,-5.344913807E-4,2.214321401E-3,1.070590444E-2
2.074261540E-1,8.017370477E-3,2.519744914E-3,-2.290677221E-4,8.407128869E-3
2.099340710E-1,8.017370477E-3,1.908897655E-3,1.603474026E-3,8.396025761E-3
2.124419880E-1,8.017370477E-3,3.130592173E-3,-2.061609412E-3,8.850371184E-3
2.149499040E-1,8.017370477E-3,7.635590737E-5,-3.283303929E-3,8.663956619E-3
2.174578210E-1,5.573981442E-3,-1.145338640E-3,1.603474026E-3,5.912038452E-3
2.199657380E-1,3.741439432E-3,-5.344913807E-4,2.214321401E-3,4.380327536E-3
2.224736540E-1,3.130592173E-3,-1.145338640E-3,5.879404955E-3,6.758684086E-3
2.249815710E-1,2.519744914E-3,-2.977880416E-3,3.436015919E-3,5.198373938E-3
2.274894880E-1,1.298050396E-3,1.908897655E-3,-2.290677221E-4,2.319762296E-3
2.299974040E-1,6.872031372E-4,-2.367033157E-3,-2.672456671E-3,3.635535556E-3
2.325053210E-1,7.635590737E-5,3.130592173E-3,-3.894151188E-3,4.997084255E-3
2.350132900E-1,-1.756185899E-3,6.795675959E-3,-8.399150101E-4,7.069006852E-3
2.375211540E-1,-2.977880416E-3,6.872031372E-4,-2.061609412E-3,3.686496072E-3
2.400290710E-1,-5.421269219E-3,3.741439432E-3,3.817795368E-4,6.598051575E-3
2.425369880E-1,-4.810422193E-3,1.908897655E-3,9.926267667E-4,5.269664110E-3
2.450449560E-1,-4.199574701E-3,-5.344913807E-4,-8.399150101E-4,4.315966396E-3
2.475528730E-1,-5.421269219E-3,3.130592173E-3,-3.283303929E-3,7.069006436E-3
2.500607900E-1,-6.642963737E-3,4.352286924E-3,-2.061609412E-3,8.204974226E-3
2.525687060E-1,-6.032116711E-3,3.741439432E-3,9.926267667E-4,7.167294394E-3
2.550766230E-1,-6.032116711E-3,3.741439432E-3,2.214321401E-3,7.435591456E-3
2.575845400E-1,-6.032116711E-3,-5.344913807E-4,1.603474026E-3,6.264442673E-3
2.600924560E-1,-7.864658721E-3,1.298050396E-3,3.817795368E-4,7.980197193E-3
2.626003730E-1,-7.253811229E-3,-5.344913807E-4,-2.061609412E-3,7.560006068E-3
2.651082900E-1,-7.864658721E-3,4.352286924E-3,3.817795368E-4,8.996722396E-3
2.676162060E-1,-7.864658721E-3,7.635590737E-5,-8.399150101E-4,7.909749948E-3
2.701241230E-1,-9.086352773E-3,2.519744914E-3,9.926267667E-4,9.481362194E-3
2.726320400E-1,-1.091889478E-2,2.519744914E-3,-8.399150101E-4,1.123729660E-2
2.751399560E-1,-1.030804776E-2,1.298050396E-3,3.817795368E-4,1.039646762E-2
2.776478730E-1,-1.030804776E-2,7.635590737E-5,-2.290677221E-4,1.031087537E-2
2.801557900E-1,-9.697199799E-3,4.963133950E-3,-1.450762269E-3,1.098968124E-2
2.826637060E-1,-9.086352773E-3,6.872031372E-4,-2.061609412E-3,9.342606073E-3
2.851716230E-1,-9.086352773E-3,1.298050396E-3,-1.450762269E-3,9.292548235E-3
2.876795400E-1,-1.030804776E-2,1.298050396E-3,2.214321401E-3,1.062280578E-2
2.901875090E-1,-1.030804776E-2,4.352286924E-3,2.825168660E-3,1.154035649E-2
2.926953730E-1,-8.475505747E-3,-1.756185899E-3,1.603474026E-3,8.802812933E-3
2.952033420E-1,-7.253811229E-3,1.298050396E-3,2.214321401E-3,7.694539066E-3
2.977112060E-1,-9.086352773E-3,6.184828468E-3,1.603474026E-3,1.110788183E-2
3.002191750E-1,-9.086352773E-3,2.519744914E-3,-2.290677221E-4,9.432040774E-3
3.027270920E-1,-9.086352773E-3,1.298050396E-3,-8.399150101E-4,9.216951707E-3
3.052350090E-1,-9.697199799E-3,1.908897655E-3,3.817795368E-4,9.890668826E-3
3.077429250E-1,-9.086352773E-3,1.298050396E-3,9.926267667E-4,9.232120528E-3
3.102508420E-1,-7.864658721E-3,6.872031372E-4,9.926267667E-4,7.956784077E-3
3.127587590E-1,-7.253811229E-3,6.184828468E-3,-2.061609412E-3,9.752954111E-3
3.152666750E-1,-6.642963737E-3,3.130592173E-3,-2.061609412E-3,7.627568940E-3
3.177745920E-1,-6.032116711E-3,-1.756185899E-3,-2.061609412E-3,6.612174702E-3
3.202825090E-1,-6.642963737E-3,4.352286924E-3,3.817795368E-4,7.950919714E-3
3.227904250E-1,-6.642963737E-3,3.130592173E-3,9.926267667E-4,7.410457642E-3
3.252983420E-1,-6.642963737E-3,-1.756185899E-3,1.603474026E-3,7.055797976E-3
3.278062590E-1,-5.421269219E-3,3.130592173E-3,-2.290677221E-4,6.264442459E-3
3.303141750E-1,-4.199574701E-3,1.298050396E-3,2.214321401E-3,4.921847394E-3
3.328220920E-1,-3.588727675E-3,6.872031372E-4,3.817795368E-4,3.673822273E-3
3.353300090E-1,-2.977880416E-3,6.795675959E-3,-1.450762269E-3,7.560006262E-3
3.378379250E-1,-2.367033157E-3,-1.145338640E-3,2.214321401E-3,3.437712297E-3
3.403458420E-1,-3.588727675E-3,6.872031372E-4,-2.290677221E-4,3.661104547E-3
3.428537590E-1,-1.756185899E-3,3.741439432E-3,2.214321401E-3,4.688899359E-3
3.453616750E-1,-5.344913807E-4,7.635590737E-5,3.817795368E-4,6.612615786E-4
3.478695920E-1,7.635590737E-5,6.872031372E-4,-3.283303929E-3,3.355318624E-3
3.503775610E-1,2.519744914E-3,6.184828468E-3,-2.290677221E-4,6.682341628E-3
3.528854770E-1,1.298050396E-3,7.635590737E-5,-2.290677221E-4,1.320317036E-3
3.553933940E-1,7.635590737E-5,1.298050396E-3,-3.283303929E-3,3.531409032E-3
3.579013110E-1,2.519744914E-3,1.298050396E-3,-2.290677221E-4,2.843680939E-3
3.604092270E-1,1.908897655E-3,6.872031372E-4,9.926267667E-4,2.258638153E-3
3.629171440E-1,1.298050396E-3,6.872031372E-4,-1.450762269E-3,2.064435551E-3
3.654250610E-1,3.130592173E-3,2.519744914E-3,-8.399150101E-4,4.105505938E-3
3.679329770E-1,3.741439432E-3,4.963133950E-3,3.817795368E-4,6.227103921E-3
3.704408940E-1,3.130592173E-3,1.908897655E-3,2.825168660E-3,4.628830907E-3
3.729488110E-1,4.963133950E-3,2.519744914E-3,2.825168660E-3,6.242066244E-3
3.754567270E-1,6.795675959E-3,7.635590737E-5,2.214321401E-3,7.147745186E-3
3.779646440E-1,4.963133950E-3,1.298050396E-3,-1.450762269E-3,5.331261070E-3
3.804725610E-1,6.184828468E-3,1.298050396E-3,-2.061609412E-3,6.647350703E-3
3.829804770E-1,6.184828468E-3,-5.344913807E-4,3.817795368E-4,6.219609298E-3
3.854883940E-1,9.239064530E-3,-1.145338640E-3,-2.061609412E-3,9.535321041E-3
3.879963110E-1,6.795675959E-3,-1.756185899E-3,-8.399150101E-4,7.069006852E-3
3.905042270E-1,-1.145338640E-3,-1.756185899E-3,2.214321401E-3,3.049460407E-3
3.930121440E-1,-2.130329795E-2,-1.145338640E-3,-2.061609412E-3,2.143344437E-2
3.955201130E-1,-6.039752439E-2,3.741439432E-3,-2.290677221E-4,6.051373227E-2
3.980280290E-1,-9.521581978E-2,9.239064530E-3,5.268557463E-3,9.580798686E-2
4.005359460E-1,-1.080436110E-1,3.741439432E-3,2.825168660E-3,1.081452812E-1
4.030438630E-1,-1.098761484E-1,-2.367033157E-3,-2.672456671E-3,1.099341296E-1
4.055517790E-1,-1.117086932E-1,-3.588727675E-3,-2.290677221E-4,1.117665584E-1
4.080596960E-1,-1.196497083E-1,3.130592173E-3,5.268557463E-3,1.198065566E-1
4.105676130E-1,-1.208714023E-1,4.352286924E-3,4.046862945E-3,1.210174178E-1
4.130755290E-1,-1.251473278E-1,4.352286924E-3,-1.450762269E-3,1.252313889E-1
4.155834460E-1,-1.336991936E-1,6.795675959E-3,1.603474026E-3,1.338813905E-1
4.180913630E-1,-1.410293579E-1,2.519744914E-3,3.436015919E-3,1.410937104E-1
4.205992790E-1,-1.501920670E-1,3.130592173E-3,9.926267667E-4,1.502279698E-1
4.231071960E-1,-1.624090075E-1,6.872031372E-4,1.603474026E-3,1.624183768E-1
4.256151130E-1,-1.752368063E-1,-2.977880416E-3,2.214321401E-3,1.752760944E-1
4.281230290E-1,-1.862320602E-1,1.298050396E-3,4.657710437E-3,1.862948186E-1
4.306309460E-1,-2.015032321E-1,6.795675959E-3,-2.290677221E-4,2.016179214E-1
4.331388630E-1,-2.234937400E-1,6.795675959E-3,-2.290677221E-4,2.235971500E-1
4.356468310E-1,-2.558686435E-1,7.406522986E-3,2.214321401E-3,2.559853952E-1
4.381547480E-1,-2.827459276E-1,1.107160654E-2,4.046862945E-3,2.829915496E-1
4.406626650E-1,-3.016822040E-1,3.130592173E-3,2.825168660E-3,3.017116743E-1
4.431705810E-1,-3.175642192E-1,2.519744914E-3,6.490251981E-3,3.176405293E-1
4.456784980E-1,-3.297811747E-1,1.298050396E-3,4.657710437E-3,3.298166193E-1
4.481864150E-1,-3.419981003E-1,3.741439432E-3,2.214321401E-3,3.420257332E-1
4.506943310E-1,-3.493282795E-1,1.168245357E-2,4.046862945E-3,3.495469978E-1
4.532022480E-1,-3.591018319E-1,1.473669056E-2,6.490251981E-3,3.594626811E-1
4.557101650E-1,-3.676536977E-1,6.795675959E-3,3.436015919E-3,3.677325507E-1
4.582180810E-1,-3.755947053E-1,5.573981442E-3,6.490251981E-3,3.756921284E-1
4.607259980E-1,-3.804814816E-1,3.741439432E-3,5.268557463E-3,3.805363503E-1
4.632339150E-1,-3.835357130E-1,2.519744914E-3,5.268557463E-3,3.835801741E-1
4.657418310E-1,-3.908658922E-1,4.963133950E-3,9.926267667E-4,3.908986616E-1
4.682497480E-1,-3.957526684E-1,8.017370477E-3,2.214321401E-3,3.958400636E-1
4.707576650E-1,-4.006394446E-1,1.046075951E-2,4.657710437E-3,4.008030518E-1
4.732656340E-1,-4.049153626E-1,8.017370477E-3,5.268557463E-3,4.050289950E-1
4.757735500E-1,-4.104129970E-1,5.573981442E-3,7.711946499E-3,4.105232898E-1
4.782814670E-1,-4.152997732E-1,4.963133950E-3,5.268557463E-3,4.153628438E-1
4.807893840E-1,-4.183540046E-1,5.573981442E-3,4.657710437E-3,4.184170607E-1
4.832973000E-1,-4.207974076E-1,3.741439432E-3,2.214321401E-3,4.208198663E-1
4.858052170E-1,-4.214082658E-1,4.963133950E-3,3.817795368E-4,4.214376644E-1
4.883131340E-1,-4.250733256E-1,8.628217503E-3,2.825168660E-3,4.251702716E-1
4.908210500E-1,-4.281275868E-1,6.184828468E-3,7.101099472E-3,4.282311389E-1
4.933289670E-1,-4.293492734E-1,7.406522986E-3,7.711946499E-3,4.294823970E-1
4.958368840E-1,-4.311818182E-1,5.573981442E-3,4.046862945E-3,4.312368337E-1
4.983448000E-1,-4.336251915E-1,1.298050396E-3,5.268557463E-3,4.336591395E-1
5.008527170E-1,-4.372902811E-1,9.239064530E-3,2.214321401E-3,4.373934767E-1
5.033606340E-1,-4.397336841E-1,6.184828468E-3,4.046862945E-3,4.397957959E-1
5.058685500E-1,-4.464530051E-1,4.352286924E-3,2.825168660E-3,4.464831573E-1
5.083764670E-1,-4.556156993E-1,9.239064530E-3,8.933641016E-3,4.557969237E-1
5.108843840E-1,-4.635567069E-1,6.184828468E-3,4.657710437E-3,4.636213616E-1
5.133923520E-1,-4.684434831E-1,3.130592173E-3,2.825168660E-3,4.684624628E-1
5.159002690E-1,-4.782170355E-1,1.046075951E-2,3.436015919E-3,4.783437747E-1
5.184081860E-1,-4.898231328E-1,8.017370477E-3,9.926267667E-4,4.898897477E-1
5.209161020E-1,-5.032618046E-1,1.168245357E-2,2.825168660E-3,5.034053091E-1
5.234240190E-1,-5.154787302E-1,1.290414855E-2,6.490251981E-3,5.156810659E-1
5.259319360E-1,-5.228089094E-1,1.298050396E-3,8.933641016E-3,5.228868431E-1
5.284398520E-1,-5.338041186E-1,4.963133950E-3,7.711946499E-3,5.338828934E-1
5.309477690E-1,-5.423560143E-1,7.406522986E-3,5.879404955E-3,5.424384483E-1
5.334556860E-1,-5.502970219E-1,8.628217503E-3,5.268557463E-3,5.503898765E-1
5.359636020E-1,-5.582380295E-1,8.017370477E-3,7.101099472E-3,5.583407574E-1
5.384715190E-1,-5.680115819E-1,1.412584260E-2,4.046862945E-3,5.682016136E-1
5.409794360E-1,-5.765634775E-1,9.849912487E-3,7.101099472E-3,5.766913299E-1
5.434873520E-1,-5.887804031E-1,8.628217503E-3,7.101099472E-3,5.888864363E-1
5.459953210E-1,-5.973322392E-1,8.628217503E-3,5.879404955E-3,5.974234825E-1
5.485031860E-1,-6.058841348E-1,1.046075951E-2,6.490251981E-3,6.060091877E-1
5.510111540E-1,-6.138251424E-1,6.184828468E-3,5.268557463E-3,6.138789093E-1
5.535190710E-1,-6.211553216E-1,9.239064530E-3,7.101099472E-3,6.212646131E-1
5.560269880E-1,-6.260420680E-1,1.351499557E-2,5.879404955E-3,6.262155327E-1
5.585349040E-1,-6.339830756E-1,1.534753758E-2,9.544488043E-3,6.342406360E-1
5.610428210E-1,-6.400915980E-1,1.229330152E-2,9.544488043E-3,6.402807793E-1
5.635507380E-1,-6.449783444E-1,9.849912487E-3,7.711946499E-3,6.450996510E-1
5.660586540E-1,-6.474217176E-1,9.239064530E-3,8.933641016E-3,6.475492651E-1
5.685665710E-1,-6.559736133E-1,9.239064530E-3,4.046862945E-3,6.560511556E-1
5.710744880E-1,-6.669688225E-1,1.046075951E-2,5.268557463E-3,6.670716568E-1
5.735824040E-1,-6.730773449E-1,9.849912487E-3,4.657710437E-3,6.731655274E-1
5.760903210E-1,-6.816291809E-1,1.046075951E-2,5.268557463E-3,6.817298038E-1
5.785982380E-1,-6.938461065E-1,1.107160654E-2,7.711946499E-3,6.939772865E-1
5.811062060E-1,-7.017871737E-1,1.046075951E-2,7.711946499E-3,7.019075002E-1
5.836140710E-1,-7.066739202E-1,1.107160654E-2,7.711946499E-3,7.068027193E-1
5.861220400E-1,-7.103390098E-1,9.239064530E-3,5.268557463E-3,7.104186279E-1
5.886299560E-1,-7.085064650E-1,8.628217503E-3,7.101099472E-3,7.085945827E-1
5.911378730E-1,-7.085064650E-1,1.168245357E-2,9.544488043E-3,7.086670501E-1
5.936457900E-1,-7.011762857E-1,1.046075951E-2,9.544488043E-3,7.013192628E-1
5.961537060E-1,-6.920135617E-1,8.017370477E-3,8.322793990E-3,6.921100467E-1
5.986616230E-1,-6.810183525E-1,1.473669056E-2,7.711946499E-3,6.812214329E-1
6.011695400E-1,-6.718556285E-1,1.718007959E-2,5.268557463E-3,6.720958997E-1
6.036774560E-1,-6.578061581E-1,1.290414855E-2,5.268557463E-3,6.579538102E-1
6.061853730E-1,-6.437566280E-1,1.351499557E-2,7.711946499E-3,6.439446602E-1
6.086932900E-1,-6.303179860E-1,1.229330152E-2,6.490251981E-3,6.304712619E-1
6.112012060E-1,-6.113817692E-1,8.628217503E-3,7.711946499E-3,6.114912820E-1
6.137091750E-1,-5.967214108E-1,8.628217503E-3,5.268557463E-3,5.968070424E-1
6.162170920E-1,-5.796176791E-1,1.351499557E-2,4.657710437E-3,5.797939318E-1
6.187250090E-1,-5.606814027E-1,1.290414855E-2,4.657710437E-3,5.608492192E-1
6.212329250E-1,-5.393017530E-1,1.473669056E-2,2.825168660E-3,5.395104563E-1
6.237408420E-1,-5.179221034E-1,7.406522986E-3,8.322793990E-3,5.180419198E-1
6.262487590E-1,-5.020400882E-1,6.184828468E-3,6.490251981E-3,5.021201307E-1
6.287566750E-1,-4.782170355E-1,8.628217503E-3,6.490251981E-3,4.783388993E-1
6.312645920E-1,-4.537831545E-1,8.017370477E-3,4.046862945E-3,4.538720157E-1
6.337725090E-1,-4.330143631E-1,8.017370477E-3,4.046862945E-3,4.331074854E-1
6.362804250E-1,-4.073587656E-1,1.046075951E-2,2.825168660E-3,4.075028503E-1
6.387883420E-1,-3.810923398E-1,1.290414855E-2,4.046862945E-3,3.813322247E-1
6.412962590E-1,-3.542150557E-1,6.795675959E-3,5.879404955E-3,3.543290198E-1
6.438041750E-1,-3.273377717E-1,8.628217503E-3,5.879404955E-3,3.275042447E-1
6.463121440E-1,-2.943520248E-1,4.352286924E-3,4.657710437E-3,2.944210440E-1
6.488200610E-1,-2.613662779E-1,1.908897655E-3,1.603474026E-3,2.613781671E-1
6.513279770E-1,-2.271588296E-1,3.741439432E-3,2.825168660E-3,2.272072045E-1
6.538358940E-1,-1.923405379E-1,8.628217503E-3,3.817795368E-4,1.925343461E-1
6.563438110E-1,-1.538571566E-1,4.352286924E-3,9.926267667E-4,1.539219034E-1
6.588517270E-1,-1.147629321E-1,6.795675959E-3,3.817795368E-4,1.149645926E-1
6.613596440E-1,-7.383616269E-2,7.635590737E-5,2.825168660E-3,7.389023162E-2
6.638675610E-1,-3.046600707E-2,7.635590737E-5,1.603474026E-3,3.050827012E-2
6.663754770E-1,1.351499557E-2,1.908897655E-3,-1.450762269E-3,1.372602298E-2
6.688833940E-1,5.627430230E-2,3.741439432E-3,-8.399150101E-4,5.640479524E-2
6.713913110E-1,1.008661538E-1,3.130592173E-3,-2.672456671E-3,1.009501046E-1
6.738992790E-1,1.485885978E-1,2.519744914E-3,-8.399150101E-4,1.486123345E-1
6.764071440E-1,1.974563748E-1,7.635590737E-5,-3.894151188E-3,1.974947852E-1
6.789151130E-1,2.457133085E-1,1.908897655E-3,-8.399150101E-4,2.457221587E-1
6.814230290E-1,2.976353168E-1,-1.145338640E-3,-3.283303929E-3,2.976556294E-1
6.839309460E-1,3.471139669E-1,-1.756185899E-3,-5.115845706E-3,3.471561063E-1
6.864388630E-1,3.923166394E-1,-2.367033157E-3,-6.337540224E-3,3.923749646E-1
6.889467790E-1,4.350759685E-1,-3.588727675E-3,-4.504998680E-3,4.351140912E-1
6.914546960E-1,4.766135812E-1,-3.588727675E-3,-3.894151188E-3,4.766429997E-1
6.939626130E-1,5.114318728E-1,-5.421269219E-3,-4.504998680E-3,5.114804451E-1
6.964705290E-1,5.462501645E-1,-7.253811229E-3,-3.283303929E-3,5.463081915E-1
6.989784460E-1,5.749599934E-1,-2.977880416E-3,-5.726693198E-3,5.749962233E-1
7.014863630E-1,6.024481058E-1,-7.864658721E-3,-7.559234742E-3,6.025468572E-1
7.039942790E-1,6.268820167E-1,-9.697199799E-3,-6.948387716E-3,6.269955172E-1
7.065022480E-1,6.513158679E-1,-8.475505747E-3,-8.170082234E-3,6.514222473E-1
7.090101650E-1,6.733064055E-1,-6.642963737E-3,-6.337540224E-3,6.733689992E-1
7.115180810E-1,6.959077120E-1,-1.091889478E-2,-5.115845706E-3,6.960121678E-1
7.140259980E-1,7.160657048E-1,-8.475505747E-3,-8.170082234E-3,7.161624662E-1
7.165339150E-1,7.386670709E-1,-7.864658721E-3,-9.391776286E-3,7.387686376E-1
7.190418310E-1,7.618792653E-1,-5.421269219E-3,-9.391776286E-3,7.619564361E-1
7.215497480E-1,7.869240046E-1,-7.864658721E-3,-1.183516532E-2,7.870522936E-1
7.240576650E-1,8.113578558E-1,-7.253811229E-3,-1.122431830E-2,8.114679127E-1
7.265655810E-1,8.388460279E-1,-9.086352773E-3,-6.948387716E-3,8.389240134E-1
7.290734980E-1,8.681666851E-1,-7.864658721E-3,-9.391776286E-3,8.682531033E-1
7.315814150E-1,8.980981708E-1,-1.030804776E-2,-6.948387716E-3,8.981842017E-1
7.340893840E-1,9.310839176E-1,-9.697199799E-3,-1.000262424E-2,9.311881388E-1
7.365972480E-1,9.665130973E-1,-1.152974181E-2,-1.305686031E-2,9.666700491E-1
7.391052170E-1,1.003163934E0,-1.030804776E-2,-1.183516532E-2,1.003286701E0
7.416131340E-1,1.039203882E0,-1.214058883E-2,-1.061347127E-2,1.039328990E0
7.441210500E-1,1.079519868E0,-1.641651988E-2,-1.061347127E-2,1.079696852E0
7.466289670E-1,1.121057391E0,-1.275143679E-2,-8.780929260E-3,1.121164296E0
7.491368840E-1,1.164427638E0,-1.519482583E-2,-1.122431830E-2,1.164580866E0
7.516448000E-1,1.208408594E0,-1.091889478E-2,-1.366770733E-2,1.208535212E0
7.541527170E-1,1.254832983E0,-1.824906096E-2,-1.427855436E-2,1.255046900E0
7.566606340E-1,1.300035715E0,-1.519482583E-2,-1.488940232E-2,1.300209767E0
7.591685500E-1,1.345238328E0,-1.702736691E-2,-1.366770733E-2,1.345415511E0
7.616764670E-1,1.388608575E0,-1.702736691E-2,-1.183516532E-2,1.388763398E0
7.641844360E-1,1.431367874E0,-1.580567285E-2,-1.305686031E-2,1.431514685E0
7.666923520E-1,1.475959659E0,-1.702736691E-2,-1.305686031E-2,1.476115621E0
7.692002690E-1,1.520551562E0,-2.069245093E-2,-1.550024934E-2,1.520771347E0
7.717081860E-1,1.565143347E0,-1.947075687E-2,-1.794363745E-2,1.565367299E0
7.742161020E-1,1.607291818E0,-1.580567285E-2,-1.733279042E-2,1.607462980E0
7.767240190E-1,1.652494550E0,-2.130329795E-2,-1.916533336E-2,1.652742986E0
7.792319360E-1,1.696475506E0,-1.702736691E-2,-1.672194339E-2,1.696643362E0
7.817398520E-1,1.742289066E0,-2.191414498E-2,-1.916533336E-2,1.742532275E0
7.842477690E-1,1.791156888E0,-2.313583903E-2,-1.733279042E-2,1.791390156E0
7.867556860E-1,1.840635538E0,-2.435753495E-2,-2.038702741E-2,1.840909586E0
7.892636020E-1,1.887670755E0,-2.008160390E-2,-2.099787444E-2,1.887894346E0
7.917715710E-1,1.933484316E0,-2.557922900E-2,-2.344126441E-2,1.933795591E0
7.942794880E-1,1.979297876E0,-2.374668792E-2,-1.977618039E-2,1.979539109E0
7.967874040E-1,2.022667885E0,-2.252499200E-2,-2.038702741E-2,2.022896037E0
7.992953210E-1,2.066038132E0,-2.619007602E-2,-1.794363745E-2,2.066282037E0
8.018032380E-1,2.105743170E0,-2.863346599E-2,-2.221956849E-2,2.106055052E0
8.043111540E-1,2.146669865E0,-2.802261710E-2,-2.466295846E-2,2.146994419E0
8.068190710E-1,2.188207626E0,-2.680092305E-2,-2.405211143E-2,2.188503920E0
8.093269880E-1,2.224858522E0,-2.741177008E-2,-2.405211143E-2,2.225157377E0
8.118349040E-1,2.261509180E0,-3.168770298E-2,-2.221956849E-2,2.261840311E0
8.143428210E-1,2.296327591E0,-3.779617324E-2,-2.221956849E-2,2.296746104E0
8.168507900E-1,2.331756592E0,-2.802261710E-2,-2.588465251E-2,2.332068628E0
8.193587060E-1,2.373294353E0,-2.680092305E-2,-2.527380548E-2,2.373580237E0
8.218666230E-1,2.414221048E0,-2.924431302E-2,-2.527380548E-2,2.414530444E0
8.243745400E-1,2.460034609E0,-3.107685409E-2,-2.832804248E-2,2.460393978E0
8.268824560E-1,2.507680655E0,-3.229855001E-2,-3.016058356E-2,2.508069999E0
8.293903730E-1,2.547996521E0,-2.680092305E-2,-2.527380548E-2,2.548262805E0
8.318982900E-1,2.591977596E0,-2.802261710E-2,-2.466295846E-2,2.592246398E0
8.344062060E-1,2.640234470E0,-3.474193811E-2,-2.649549954E-2,2.640595969E0
8.369141230E-1,2.691545725E0,-3.474193811E-2,-2.771719359E-2,2.691912635E0
8.394220400E-1,2.739802599E0,-3.657447919E-2,-2.771719359E-2,2.740186894E0
8.419299560E-1,2.788136005E0,-3.474193811E-2,-3.260397166E-2,2.788543062E0
8.444379250E-1,2.839447021E0,-4.023956135E-2,-3.260397166E-2,2.839919300E0
8.469458420E-1,2.893812418E0,-3.779617324E-2,-2.954973653E-2,2.894210091E0
8.494537590E-1,2.947566986E0,-3.779617324E-2,-3.199312463E-2,2.947982912E0
8.519616750E-1,2.997656584E0,-3.840702027E-2,-3.565821052E-2,2.998114675E0
8.544695920E-1,3.050189495E0,-3.413109109E-2,-3.321481869E-2,3.050561278E0
8.569775090E-1,3.105776548E0,-4.085041210E-2,-3.321481869E-2,3.106222778E0
8.594854250E-1,3.155255079E0,-3.901786730E-2,-3.321481869E-2,3.155671123E0
8.619933420E-1,3.205344677E0,-3.840702027E-2,-3.626905754E-2,3.205779943E0
8.645012590E-1,3.258488417E0,-4.634803534E-2,-3.199312463E-2,3.258975063E0
8.670091750E-1,3.307966948E0,-5.062396824E-2,-3.199312463E-2,3.308508980E0
8.695170920E-1,3.354391336E0,-3.962871432E-2,-3.382566571E-2,3.354795947E0
8.720250610E-1,3.405702591E0,-4.451549426E-2,-3.749075159E-2,3.406199836E0
8.745329770E-1,3.454570293E0,-4.451549426E-2,-3.810159862E-2,3.455067188E0
8.770408940E-1,3.502827168E0,-4.756972939E-2,-3.871244565E-2,3.503364054E0
8.795488110E-1,3.546808243E0,-4.329380020E-2,-3.749075159E-2,3.547270587E0
8.820567270E-1,3.590178490E0,-4.573718831E-2,-3.687990457E-2,3.590659216E0
8.845646440E-1,3.634770155E0,-5.001311749E-2,-4.054498672E-2,3.635340326E0
8.870725610E-1,3.682416439E0,-5.062396824E-2,-4.054498672E-2,3.682987580E0
8.895804770E-1,3.729451656E0,-4.818057641E-2,-4.176668078E-2,3.729996713E0
8.920883940E-1,3.780762672E0,-4.940227047E-2,-4.482091591E-2,3.781351066E0
8.945963630E-1,3.829630613E0,-5.062396824E-2,-4.115583375E-2,3.830186317E0
8.971042790E-1,3.879109144E0,-5.123481527E-2,-3.871244565E-2,3.879640629E0
8.996121960E-1,3.922479391E0,-4.818057641E-2,-4.054498672E-2,3.922984812E0
9.021201130E-1,3.965238571E0,-5.306735635E-2,-4.359922186E-2,3.965833325E0
9.046280290E-1,4.004333019E0,-4.940227047E-2,-4.359922186E-2,4.004875080E0
9.071359460E-1,4.040372849E0,-4.940227047E-2,-4.482091591E-2,4.040923441E0
9.096438630E-1,4.072136879E0,-5.551074445E-2,-4.359922186E-2,4.072748592E0
9.121517790E-1,4.102068424E0,-5.551074445E-2,-4.665346071E-2,4.102709269E0
9.146596960E-1,4.125891685E0,-5.612159148E-2,-4.543176666E-2,4.126523462E0
9.171676130E-1,4.156433582E0,-5.245650932E-2,-4.543176666E-2,4.157012852E0
9.196755290E-1,4.188808918E0,-5.795413256E-2,-4.237752780E-2,4.189424148E0
9.221834980E-1,4.216907501E0,-5.856497958E-2,-4.665346071E-2,4.217572202E0
9.246914150E-1,4.242563248E0,-5.367820337E-2,-4.848600179E-2,4.243179840E0
9.271993310E-1,4.270662308E0,-5.123481527E-2,-4.726430774E-2,4.271231142E0
9.297072480E-1,4.299372196E0,-5.428905040E-2,-4.543176666E-2,4.299954956E0
9.322151650E-1,4.334190369E0,-5.978667364E-2,-4.482091591E-2,4.334834427E0
9.347230810E-1,4.363511086E0,-6.039752439E-2,-4.604261369E-2,4.364171946E0
9.372309980E-1,4.393442631E0,-5.795413256E-2,-4.848600179E-2,4.394092366E0
9.397389150E-1,4.420320034E0,-5.978667364E-2,-4.787515476E-2,4.420983565E0
9.422468310E-1,4.452694893E0,-5.551074445E-2,-4.909684882E-2,4.453311549E0
9.447547480E-1,4.477739334E0,-5.795413256E-2,-5.092938989E-2,4.478403960E0
9.472627170E-1,4.502784252E0,-6.100837141E-2,-5.031854287E-2,4.503478655E0
9.497706340E-1,4.528439999E0,-5.856497958E-2,-4.665346071E-2,4.529058978E0
9.522785500E-1,4.556538582E0,-6.100837141E-2,-4.726430774E-2,4.557192094E0
9.547864670E-1,4.579751015E0,-6.039752439E-2,-5.031854287E-2,4.580425654E0
9.572943840E-1,4.604795933E0,-5.856497958E-2,-4.970769584E-2,4.605436602E0
9.598023000E-1,4.626786232E0,-6.345175952E-2,-5.276193097E-2,4.627522100E0
9.623102170E-1,4.646333218E0,-5.795413256E-2,-5.215108395E-2,4.646987281E0
9.648181340E-1,4.662826061E0,-5.978667364E-2,-5.337277800E-2,4.663514766E0
9.673260500E-1,4.678708076E0,-5.612159148E-2,-5.154023692E-2,4.679328509E0
9.698340190E-1,4.689703465E0,-6.345175952E-2,-5.154023692E-2,4.690415878E0
9.723419360E-1,4.701309681E0,-6.345175952E-2,-5.154023692E-2,4.702020336E0
9.748498520E-1,4.714137554E0,-6.467345357E-2,-5.337277800E-2,4.714883264E0
9.773577690E-1,4.725132465E0,-6.284090877E-2,-5.459447205E-2,4.725865672E0
9.798656860E-1,4.731241226E0,-6.039752439E-2,-5.398362502E-2,4.731934661E0
9.823736020E-1,4.735517025E0,-6.100837141E-2,-4.909684882E-2,4.736164484E0
9.848815190E-1,4.739181995E0,-5.734328553E-2,-5.092938989E-2,4.739802532E0
9.873894360E-1,4.742846966E0,-6.345175952E-2,-4.726430774E-2,4.743506865E0
9.898973520E-1,4.747123241E0,-6.284090877E-2,-4.665346071E-2,4.747768380E0
9.924053210E-1,4.748344898E0,-5.795413256E-2,-5.276193097E-2,4.748991659E0
9.949132380E-1,4.753842354E0,-6.467345357E-2,-5.398362502E-2,4.754588732E0
9.974211540E-1,4.761783600E0,-6.406260282E-2,-5.154023692E-2,4.762493408E0
9.999290710E-1,4.769724369E0,-6.161921844E-2,-5.215108395E-2,4.770407448E0
1.002436988E0,4.776443958E0,-6.528430432E-2,-5.337277800E-2,4.777188250E0
1.004944904E0,4.783773899E0,-6.711684167E-2,-5.154023692E-2,4.784522315E0
1.007452821E0,4.792936802E0,-6.711684167E-2,-5.154023692E-2,4.793683787E0
1.009960738E0,4.799045086E0,-6.100837141E-2,-5.154023692E-2,4.799709591E0
1.012468654E0,4.804542542E0,-6.039752439E-2,-5.398362502E-2,4.805225398E0
1.014976571E0,4.813705444E0,-6.406260282E-2,-5.215108395E-2,4.814414176E0
1.017484540E0,4.821035862E0,-6.406260282E-2,-5.276193097E-2,4.821750162E0
1.019992456E0,4.825922489E0,-6.223006546E-2,-5.459447205E-2,4.826632471E0
1.022500373E0,4.826533318E0,-5.978667364E-2,-5.337277800E-2,4.827198666E0
1.025008290E0,4.828976631E0,-6.100837141E-2,-5.215108395E-2,4.829643575E0
1.027516206E0,4.833863258E0,-6.711684167E-2,-4.848600179E-2,4.834572325E0
1.030024123E0,4.835084915E0,-6.467345357E-2,-5.092938989E-2,4.835785623E0
1.032532040E0,4.827144146E0,-5.978667364E-2,-5.215108395E-2,4.827796059E0
1.035039956E0,4.821035862E0,-6.100837141E-2,-4.909684882E-2,4.821671837E0
1.037547873E0,4.813705444E0,-5.917582661E-2,-5.154023692E-2,4.814345052E0
1.040055842E0,4.808207989E0,-6.284090877E-2,-5.581616983E-2,4.808942554E0
1.042563759E0,4.803320885E0,-6.589514762E-2,-5.459447205E-2,4.804083081E0
1.045071675E0,4.798434258E0,-6.100837141E-2,-5.154023692E-2,4.799098847E0
1.047579592E0,4.800877571E0,-6.467345357E-2,-5.276193097E-2,4.801603058E0
1.050087509E0,4.806375504E0,-6.406260282E-2,-5.215108395E-2,4.807085316E0
1.052595425E0,4.811872959E0,-5.795413256E-2,-5.154023692E-2,4.812497943E0
1.055103342E0,4.824700832E0,-6.284090877E-2,-5.215108395E-2,4.825391884E0
1.057611259E0,4.836917877E0,-6.223006546E-2,-5.398362502E-2,4.837619390E0
1.060119175E0,4.852799892E0,-6.345175952E-2,-5.092938989E-2,4.853481918E0
1.062627144E0,4.871736050E0,-6.284090877E-2,-4.970769584E-2,4.872394891E0
1.065135061E0,4.893115520E0,-6.284090877E-2,-5.398362502E-2,4.893816783E0
1.067642977E0,4.914495468E0,-6.100837141E-2,-5.276193097E-2,4.915157327E0
1.070150894E0,4.936485767E0,-6.345175952E-2,-5.459447205E-2,4.937195400E0
1.072658811E0,4.961530685E0,-6.711684167E-2,-5.459447205E-2,4.962284954E0
1.075166727E0,4.987796783E0,-6.406260282E-2,-5.703786388E-2,4.988534262E0
1.077674644E0,5.017728329E0,-6.589514762E-2,-5.581616983E-2,5.018471400E0
1.080182561E0,5.049492359E0,-6.772769243E-2,-5.215108395E-2,5.050215823E0
1.082690477E0,5.081867218E0,-6.528430432E-2,-5.154023692E-2,5.082547871E0
1.085198394E0,5.116685867E0,-6.772769243E-2,-5.215108395E-2,5.117399832E0
1.087706363E0,5.149060726E0,-7.017108053E-2,-5.337277800E-2,5.149815433E0
1.090214279E0,5.181435585E0,-6.650599837E-2,-5.398362502E-2,5.182143572E0
1.092722196E0,5.211367130E0,-6.589514762E-2,-5.398362502E-2,5.212063293E0
1.095230113E0,5.243741989E0,-6.650599837E-2,-5.276193097E-2,5.244429132E0
1.097738029E0,5.272451878E0,-6.894938648E-2,-5.703786388E-2,5.273211179E0
1.100245946E0,5.300550938E0,-6.467345357E-2,-5.581616983E-2,5.301239321E0
1.102753863E0,5.328649521E0,-7.444700599E-2,-5.887040496E-2,5.329494704E0
1.105261779E0,5.352472782E0,-7.261446863E-2,-5.703786388E-2,5.353269194E0
1.107769696E0,5.373852253E0,-7.627955079E-2,-5.825955793E-2,5.374709367E0
1.110277665E0,5.390345097E0,-7.200361788E-2,-6.131379306E-2,5.391174655E0
1.112785581E0,5.403172970E0,-6.956022978E-2,-5.887040496E-2,5.403941385E0
1.115293498E0,5.411114216E0,-7.383616269E-2,-5.948125198E-2,5.411944831E0
1.117801415E0,5.411114216E0,-7.078192383E-2,-5.887040496E-2,5.411897344E0
1.120309331E0,5.408060074E0,-6.894938648E-2,-5.703786388E-2,5.408800338E0
1.122817248E0,5.401340485E0,-7.383616269E-2,-5.215108395E-2,5.402096866E0
1.125325165E0,5.386680126E0,-7.383616269E-2,-5.642701685E-2,5.387481654E0
1.127833081E0,5.364078999E0,-7.200361788E-2,-6.131379306E-2,5.364912619E0
1.130340998E0,5.334147453E0,-7.444700599E-2,-5.642701685E-2,5.334965362E0
1.132848967E0,5.296274662E0,-7.017108053E-2,-5.581616983E-2,5.297033577E0
1.135356884E0,5.248628616E0,-7.078192383E-2,-6.070294604E-2,5.249456856E0
1.137864800E0,5.191208839E0,-7.139277458E-2,-5.948125198E-2,5.192040462E0
1.140372717E0,5.128902435E0,-6.894938648E-2,-5.825955793E-2,5.129696715E0
1.142880634E0,5.067206860E0,-7.383616269E-2,-6.070294604E-2,5.068108324E0
1.145388550E0,5.001235485E0,-6.833853573E-2,-5.825955793E-2,5.002041654E0
1.147896467E0,4.929766655E0,-7.139277458E-2,-5.337277800E-2,4.930572467E0
1.150404384E0,4.854021549E0,-6.589514762E-2,-4.970769584E-2,4.854723290E0
1.152912352E0,4.773389339E0,-6.039752439E-2,-5.154023692E-2,4.774049648E0
1.155420269E0,4.692146778E0,-6.467345357E-2,-4.848600179E-2,4.692842948E0
1.157928186E0,4.610904217E0,-6.100837141E-2,-4.726430774E-2,4.611550025E0
1.160436102E0,4.524163723E0,-6.161921844E-2,-4.665346071E-2,4.524823849E0
1.162944019E0,4.434980392E0,-6.223006546E-2,-5.092938989E-2,4.435709353E0
1.165451936E0,4.348850727E0,-5.795413256E-2,-5.031854287E-2,4.349527938E0
1.167959852E0,4.265164852E0,-6.100837141E-2,-4.604261369E-2,4.265849641E0
1.170467769E0,4.182089329E0,-5.673243850E-2,-3.871244565E-2,4.182653270E0
1.172975686E0,4.099014282E0,-5.062396824E-2,-4.115583375E-2,4.099533470E0
1.175483654E0,4.020215034E0,-5.428905040E-2,-4.115583375E-2,4.020792214E0
1.177991571E0,3.943858862E0,-5.612159148E-2,-4.421006888E-2,3.944505912E0
1.180499488E0,3.867503166E0,-5.245650932E-2,-4.482091591E-2,3.868118579E0
1.183007404E0,3.795423031E0,-4.940227047E-2,-4.665346071E-2,3.796031232E0
1.185515321E0,3.725786448E0,-4.756972939E-2,-4.359922186E-2,3.726345183E0
1.188023238E0,3.656760693E0,-4.818057641E-2,-4.054498672E-2,3.657302835E0
1.190531154E0,3.595675945E0,-4.573718831E-2,-3.871244565E-2,3.596175197E0
1.193039071E0,3.541310549E0,-4.146125913E-2,-3.932329267E-2,3.541771557E0
1.195547040E0,3.489999533E0,-4.329380020E-2,-3.626905754E-2,3.490456494E0
1.198054956E0,3.442353487E0,-4.512634128E-2,-3.626905754E-2,3.442840304E0
1.200562873E0,3.395318031E0,-4.329380020E-2,-3.932329267E-2,3.395821728E0
1.203070790E0,3.350726366E0,-4.451549426E-2,-3.687990457E-2,3.351224990E0
1.205578706E0,3.308577776E0,-4.268295318E-2,-3.687990457E-2,3.309058607E0
1.208086623E0,3.263985872E0,-4.085041210E-2,-3.565821052E-2,3.264436251E0
1.210594540E0,3.220005035E0,-4.146125913E-2,-3.504735976E-2,3.220462666E0
1.213102456E0,3.176634789E0,-3.718532622E-2,-3.443651274E-2,3.177039062E0
1.215610373E0,3.137540579E0,-3.840702027E-2,-3.321481869E-2,3.137951435E0
1.218118342E0,3.100889683E0,-4.146125913E-2,-3.504735976E-2,3.101364890E0
1.220626259E0,3.064849854E0,-3.657447919E-2,-3.382566571E-2,3.065254719E0
1.223134175E0,3.031863928E0,-4.146125913E-2,-3.504735976E-2,3.032349952E0
1.225642092E0,2.995824099E0,-3.657447919E-2,-3.382566571E-2,2.996238291E0
1.228150009E0,2.962838173E0,-3.779617324E-2,-3.260397166E-2,2.963258613E0
1.230657925E0,2.931684971E0,-3.657447919E-2,-3.443651274E-2,2.932115334E0
1.233165842E0,2.902364492E0,-3.474193811E-2,-3.016058356E-2,2.902729114E0
1.235673759E0,2.877930403E0,-3.596363217E-2,-3.199312463E-2,2.878332911E0
1.238181727E0,2.854718208E0,-3.535278514E-2,-3.138227761E-2,2.855109580E0
1.240689644E0,2.833338737E0,-3.474193811E-2,-2.832804248E-2,2.833693329E0
1.243197561E0,2.810737371E0,-3.535278514E-2,-2.893888950E-2,2.811108651E0
1.245705477E0,2.797909498E0,-3.962871432E-2,-3.260397166E-2,2.798380070E0
1.248213394E0,2.783172846E0,-3.413109109E-2,-3.077143058E-2,2.783552209E0
1.250721311E0,2.775231838E0,-3.290939704E-2,-3.138227761E-2,2.775604372E0
1.253229227E0,2.772177458E0,-3.535278514E-2,-3.626905754E-2,2.772640100E0
1.255737144E0,2.777064323E0,-3.352024406E-2,-3.687990457E-2,2.777511474E0
1.258245061E0,2.790579319E0,-3.535278514E-2,-3.321481869E-2,2.791000892E0
1.260753029E0,2.810737371E0,-3.474193811E-2,-3.626905754E-2,2.811186052E0
1.263260946E0,2.838225365E0,-4.146125913E-2,-3.565821052E-2,2.838752149E0
1.265768863E0,2.869378567E0,-3.779617324E-2,-3.443651274E-2,2.869834104E0
1.268276779E0,2.907251120E0,-3.962871432E-2,-3.199312463E-2,2.907697210E0
1.270784696E0,2.946956158E0,-3.779617324E-2,-3.260397166E-2,2.947378863E0
1.273292613E0,2.984828711E0,-3.352024406E-2,-3.260397166E-2,2.985194978E0
1.275800529E0,3.022701263E0,-3.779617324E-2,-3.077143058E-2,3.023094170E0
1.278308446E0,3.064849854E0,-3.779617324E-2,-3.260397166E-2,3.065256302E0
1.280816415E0,3.100278854E0,-4.085041210E-2,-3.565821052E-2,3.100753012E0
1.283324331E0,3.136929750E0,-4.207210615E-2,-3.260397166E-2,3.137381287E0
1.285832248E0,3.173580647E0,-3.535278514E-2,-2.832804248E-2,3.173903971E0
1.288340165E0,3.210842371E0,-4.207210615E-2,-3.138227761E-2,3.211271343E0
1.290848081E0,3.247493029E0,-4.146125913E-2,-3.199312463E-2,3.247915265E0
1.293355998E0,3.282922268E0,-4.085041210E-2,-3.382566571E-2,3.283350659E0
1.295863915E0,3.318962336E0,-4.146125913E-2,-3.504735976E-2,3.319406323E0
1.298371884E0,3.353169680E0,-4.940227047E-2,-3.749075159E-2,3.353743139E0
1.300879800E0,3.379436016E0,-4.146125913E-2,-3.749075159E-2,3.379898279E0
1.303387717E0,3.405091763E0,-4.512634128E-2,-3.565821052E-2,3.405577456E0
1.305895634E0,3.426471233E0,-4.085041210E-2,-3.626905754E-2,3.426906668E0
1.308403550E0,3.450905323E0,-4.329380020E-2,-3.443651274E-2,3.451348689E0
1.310911467E0,3.471673965E0,-4.695888236E-2,-3.504735976E-2,3.472168426E0
1.313419384E0,3.487555981E0,-4.390464723E-2,-3.687990457E-2,3.488027303E0
1.315927300E0,3.503437996E0,-5.123481527E-2,-3.993413970E-2,3.504040173E0
1.318435217E0,3.520541906E0,-4.207210615E-2,-3.993413970E-2,3.521019755E0
1.320943186E0,3.531537056E0,-4.451549426E-2,-3.749075159E-2,3.532016586E0
1.323451102E0,3.535813093E0,-4.756972939E-2,-3.626905754E-2,3.536319068E0
1.325959019E0,3.535813093E0,-4.390464723E-2,-4.054498672E-2,3.536318106E0
1.328466936E0,3.534591198E0,-4.940227047E-2,-4.054498672E-2,3.535168938E0
1.330974852E0,3.533980370E0,-5.184566230E-2,-3.993413970E-2,3.534586250E0
1.333482769E0,3.527261257E0,-5.184566230E-2,-3.871244565E-2,3.527854674E0
1.335990686E0,3.521763563E0,-4.634803534E-2,-4.054498672E-2,3.522301894E0
1.338498602E0,3.513822556E0,-4.756972939E-2,-3.749075159E-2,3.514344517E0
1.341006571E0,3.501605511E0,-4.512634128E-2,-3.443651274E-2,3.502065592E0
1.343514488E0,3.491221189E0,-4.512634128E-2,-3.626905754E-2,3.491701194E0
1.346022404E0,3.486945152E0,-5.001311749E-2,-3.687990457E-2,3.487498808E0
1.348530321E0,3.482669353E0,-4.634803534E-2,-3.565821052E-2,3.483160271E0
1.351038238E0,3.478393316E0,-5.123481527E-2,-3.932329267E-2,3.478992870E0
1.353546154E0,3.475339174E0,-4.634803534E-2,-3.932329267E-2,3.475870659E0
1.356054071E0,3.472284794E0,-4.634803534E-2,-4.054498672E-2,3.472830794E0
1.358561988E0,3.468619823E0,-4.573718831E-2,-3.871244565E-2,3.469137360E0
1.361069956E0,3.468619823E0,-4.146125913E-2,-3.932329267E-2,3.469090491E0
1.363577873E0,3.469841480E0,-5.062396824E-2,-3.810159862E-2,3.470419919E0
1.366085790E0,3.469841480E0,-5.001311749E-2,-3.749075159E-2,3.470404410E0
1.368593706E0,3.471063137E0,-4.695888236E-2,-3.993413970E-2,3.471610458E0
1.371101623E0,3.472895622E0,-4.634803534E-2,-3.993413970E-2,3.473434450E0
1.373609540E0,3.477171659E0,-4.818057641E-2,-3.871244565E-2,3.477720916E0
1.376117456E0,3.482669353E0,-4.329380020E-2,-3.871244565E-2,3.483153576E0
1.378625373E0,3.486945152E0,-4.512634128E-2,-3.565821052E-2,3.487419446E0
1.381133342E0,3.490610361E0,-5.001311749E-2,-3.565821052E-2,3.491150743E0
1.383641259E0,3.493664503E0,-4.329380020E-2,-3.382566571E-2,3.494096477E0
1.386149175E0,3.497329712E0,-4.512634128E-2,-3.565821052E-2,3.497802597E0
1.388657092E0,3.497940540E0,-5.245650932E-2,-3.932329267E-2,3.498554849E0
1.391165009E0,3.491832018E0,-4.634803534E-2,-3.932329267E-2,3.492360993E0
1.393672925E0,3.482669353E0,-4.390464723E-2,-3.993413970E-2,3.483175014E0
1.396180842E0,3.469230652E0,-4.512634128E-2,-3.993413970E-2,3.469753945E0
1.398688759E0,3.454570293E0,-5.184566230E-2,-3.626905754E-2,3.455149683E0
1.401196727E0,3.436855793E0,-4.451549426E-2,-3.382566571E-2,3.437310511E0
1.403704644E0,3.416086912E0,-4.879142344E-2,-3.565821052E-2,3.416621416E0
1.406212561E0,3.392263889E0,-4.573718831E-2,-3.504735976E-2,3.392753233E0
1.408720477E0,3.367219210E0,-4.573718831E-2,-3.626905754E-2,3.367725128E0
1.411228394E0,3.344007015E0,-4.756972939E-2,-3.565821052E-2,3.344535439E0
1.413736311E0,3.312853813E0,-4.451549426E-2,-3.443651274E-2,3.313331841E0
1.416244227E0,3.281089783E0,-4.818057641E-2,-3.321481869E-2,3.281611609E0
1.418752144E0,3.249936581E0,-4.023956135E-2,-3.321481869E-2,3.250355400E0
1.421260113E0,3.216950655E0,-4.451549426E-2,-3.443651274E-2,3.217442932E0
1.423768029E0,3.185186625E0,-3.840702027E-2,-3.565821052E-2,3.185617749E0
1.426275946E0,3.150368452E0,-4.085041210E-2,-3.504735976E-2,3.150828218E0
1.428783863E0,3.114939213E0,-4.207210615E-2,-3.687990457E-2,3.115441620E0
1.431291779E0,3.083786011E0,-4.023956135E-2,-3.565821052E-2,3.084254673E0
1.433799696E0,3.041026831E0,-3.657447919E-2,-3.871244565E-2,3.041493142E0
1.436307613E0,2.979942083E0,-3.657447919E-2,-3.810159862E-2,2.980410080E0
1.438815529E0,2.918857336E0,-3.779617324E-2,-2.832804248E-2,2.919239486E0
1.441323498E0,2.874876261E0,-3.474193811E-2,-2.954973653E-2,2.875238026E0
1.443831415E0,2.831506014E0,-3.779617324E-2,-3.810159862E-2,2.832014581E0
1.446339331E0,2.770955801E0,-3.535278514E-2,-2.893888950E-2,2.771332411E0
1.448847248E0,2.707427740E0,-4.085041210E-2,-2.771719359E-2,2.707877761E0
1.451355165E0,2.659170866E0,-3.474193811E-2,-3.016058356E-2,2.659568829E0
1.453863081E0,2.615189791E0,-3.290939704E-2,-3.504735976E-2,2.615631661E0
1.456371050E0,2.559602737E0,-3.596363217E-2,-2.832804248E-2,2.560012116E0
1.458878915E0,2.507680655E0,-3.229855001E-2,-2.099787444E-2,2.507976549E0
1.461386884E0,2.465532303E0,-3.046600707E-2,-2.954973653E-2,2.465897585E0
1.463894800E0,2.424605370E0,-2.924431302E-2,-2.710634656E-2,2.424933232E0
1.466402717E0,2.385511160E0,-3.535278514E-2,-2.649549954E-2,2.385920226E0
1.468910634E0,2.345806122E0,-3.474193811E-2,-3.321481869E-2,2.346298486E0
1.471418550E0,2.315263748E0,-2.924431302E-2,-3.443651274E-2,2.315704499E0
1.473926467E0,2.284721375E0,-3.107685409E-2,-3.077143058E-2,2.285139911E0
1.476434384E0,2.252957344E0,-3.535278514E-2,-2.344126441E-2,2.253356631E0
1.478942352E0,2.228523493E0,-3.535278514E-2,-2.344126441E-2,2.228927157E0
1.481450269E0,2.207143784E0,-3.413109109E-2,-2.893888950E-2,2.207597353E0
1.483958186E0,2.184542418E0,-3.535278514E-2,-2.649549954E-2,2.184989109E0
1.486466102E0,2.164995432E0,-3.535278514E-2,-2.649549954E-2,2.165446155E0
1.488974019E0,2.146669865E0,-3.168770298E-2,-2.832804248E-2,2.147090612E0
1.491481936E0,2.134453058E0,-2.924431302E-2,-2.405211143E-2,2.134788887E0
1.493989852E0,2.126512051E0,-3.168770298E-2,-2.099787444E-2,2.126851787E0
1.496497769E0,2.116127729E0,-2.802261710E-2,-2.099787444E-2,2.116417432E0
1.499005738E0,2.111240864E0,-3.046600707E-2,-2.221956849E-2,2.111577579E0
1.501513654E0,2.107575655E0,-2.924431302E-2,-2.160872146E-2,2.107889302E0
1.504021571E0,2.105743170E0,-2.130329795E-2,-2.221956849E-2,2.105968147E0
1.506529488E0,2.103299856E0,-2.680092305E-2,-2.405211143E-2,2.103608110E0
1.509037404E0,2.102078199E0,-3.046600707E-2,-2.099787444E-2,2.102403825E0
1.511545321E0,2.094748020E0,-2.680092305E-2,-1.977618039E-2,2.095012805E0
1.514053238E0,2.089861155E0,-2.741177008E-2,-1.977618039E-2,2.090134481E0
1.516561206E0,2.082530975E0,-2.557922900E-2,-2.099787444E-2,2.082793910E0
1.519069123E0,2.077644348E0,-3.046600707E-2,-2.283041552E-2,2.077993129E0
1.521577040E0,2.070314169E0,-2.863346599E-2,-2.832804248E-2,2.070705945E0
1.524084956E0,2.065427303E0,-2.619007602E-2,-2.588465251E-2,2.065755523E0
1.526592873E0,2.057486296E0,-2.924431302E-2,-2.283041552E-2,2.057820768E0
1.529100790E0,2.055042982E0,-3.046600707E-2,-2.099787444E-2,2.055376060E0
1.531608706E0,2.050156116E0,-2.557922900E-2,-2.099787444E-2,2.050423203E0
1.534116623E0,2.050766945E0,-3.046600707E-2,-2.160872146E-2,2.051107061E0
1.536624592E0,2.050156116E0,-2.496838197E-2,-2.221956849E-2,2.050428548E0
1.539132509E0,2.053821087E0,-2.557922900E-2,-2.344126441E-2,2.054114127E0
1.541640425E0,2.059929609E0,-3.107685409E-2,-2.588465251E-2,2.060326620E0
1.544148342E0,2.066038132E0,-2.496838197E-2,-2.160872146E-2,2.066301991E0
1.546656259E0,2.074589968E0,-2.557922900E-2,-2.344126441E-2,2.074880075E0
1.549164175E0,2.086196184E0,-3.168770298E-2,-2.160872146E-2,2.086548721E0
1.551672092E0,2.099634647E0,-2.496838197E-2,-2.221956849E-2,2.099900660E0
1.554180009E0,2.119181871E0,-2.557922900E-2,-2.710634656E-2,2.119509579E0
1.556687977E0,2.139950752E0,-3.046600707E-2,-2.710634656E-2,2.140339261E0
1.559195894E0,2.166217089E0,-2.313583903E-2,-2.466295846E-2,2.166481019E0
1.561703811E0,2.193094254E0,-2.802261710E-2,-2.466295846E-2,2.193411939E0
1.564211727E0,2.221804142E0,-2.557922900E-2,-2.160872146E-2,2.222056453E0
1.566719644E0,2.256011724E0,-2.680092305E-2,-1.855448633E-2,2.256247207E0
1.569227561E0,2.292662382E0,-3.413109109E-2,-2.527380548E-2,2.293055711E0
1.571735477E0,2.328702450E0,-2.741177008E-2,-2.405211143E-2,2.328987980E0
1.574243446E0,2.370239973E0,-2.924431302E-2,-2.588465251E-2,2.370561700E0
1.576751363E0,2.409945250E0,-3.107685409E-2,-2.710634656E-2,2.410298038E0
1.579259279E0,2.449039459E0,-2.924431302E-2,-2.344126441E-2,2.449326233E0
1.581767196E0,2.488744497E0,-3.168770298E-2,-2.283041552E-2,2.489050926E0
1.584275113E0,2.532725334E0,-3.107685409E-2,-2.160872146E-2,2.533008158E0
1.586783029E0,2.576706409E0,-3.657447919E-2,-2.221956849E-2,2.577061761E0
1.589290946E0,2.621298313E0,-3.352024406E-2,-2.771719359E-2,2.621659149E0
1.591798863E0,2.668333530E0,-3.168770298E-2,-2.954973653E-2,2.668685281E0
1.594306831E0,2.714757919E0,-3.657447919E-2,-3.260397166E-2,2.715200043E0
1.596814748E0,2.759960651E0,-3.413109109E-2,-3.016058356E-2,2.760336463E0
1.599322665E0,2.802185535E0,-3.352024406E-2,-2.832804248E-2,2.802529190E0
1.601830581E0,2.851053238E0,-3.535278514E-2,-2.649549954E-2,2.851395517E0
1.604338498E0,2.893201590E0,-3.779617324E-2,-2.893888950E-2,2.893593173E0
1.606846415E0,2.941458702E0,-4.146125913E-2,-3.443651274E-2,2.941952448E0
1.609354331E0,2.986661434E0,-4.023956135E-2,-3.443651274E-2,2.987131001E0
1.611862248E0,3.031863928E0,-3.840702027E-2,-3.504735976E-2,3.032309729E0
1.614370217E0,3.071569204E0,-3.779617324E-2,-3.504735976E-2,3.072001668E0
1.616878134E0,3.108219862E0,-4.085041210E-2,-3.199312463E-2,3.108652928E0
1.619386050E0,3.140594721E0,-4.023956135E-2,-3.199312463E-2,3.141015438E0
1.621893967E0,3.168082952E0,-3.962871432E-2,-3.138227761E-2,3.168486212E0
1.624401884E0,3.187019110E0,-3.901786730E-2,-3.260397166E-2,3.187424700E0
1.626909852E0,3.201679468E0,-3.840702027E-2,-3.504735976E-2,3.202101628E0
1.629417769E0,3.210231304E0,-4.085041210E-2,-3.687990457E-2,3.210703024E0
1.631925686E0,3.213896513E0,-4.085041210E-2,-3.504735976E-2,3.214347192E0
1.634433602E0,3.212674856E0,-4.146125913E-2,-3.321481869E-2,3.213114065E0
1.636941519E0,3.206566334E0,-4.451549426E-2,-3.321481869E-2,3.207047319E0
1.639449436E0,3.195571184E0,-3.962871432E-2,-3.565821052E-2,3.196015822E0
1.641957352E0,3.177245617E0,-3.840702027E-2,-3.871244565E-2,3.177713559E0
1.644465269E0,3.157087803E0,-4.085041210E-2,-3.810159862E-2,3.157581968E0
1.646973238E0,3.132042885E0,-3.962871432E-2,-3.626905754E-2,3.132503553E0
1.649481154E0,3.107609034E0,-4.940227047E-2,-3.382566571E-2,3.108185751E0
1.651989071E0,3.080731869E0,-4.634803534E-2,-3.077143058E-2,3.081234147E0
1.654496988E0,3.053854465E0,-4.634803534E-2,-3.138227761E-2,3.054367379E0
1.657004904E0,3.025144577E0,-4.390464723E-2,-3.260397166E-2,3.025638833E0
1.659512821E0,2.997045755E0,-3.901786730E-2,-3.138227761E-2,2.997464012E0
1.662020738E0,2.967114210E0,-3.779617324E-2,-3.382566571E-2,2.967547719E0
1.664528706E0,2.936571836E0,-3.962871432E-2,-3.016058356E-2,2.936994084E0
1.667036623E0,2.908472776E0,-4.085041210E-2,-3.016058356E-2,2.908916002E0
1.669544540E0,2.884649754E0,-4.207210615E-2,-3.321481869E-2,2.885147741E0
1.672052456E0,2.857161760E0,-3.962871432E-2,-3.016058356E-2,2.857595741E0
1.674560373E0,2.835171223E0,-3.840702027E-2,-3.199312463E-2,2.835611842E0
1.677068290E0,2.812569857E0,-4.023956135E-2,-3.321481869E-2,2.813053793E0
1.679576206E0,2.793022633E0,-3.718532622E-2,-3.382566571E-2,2.793474960E0
1.682084123E0,2.771566629E0,-3.596363217E-2,-2.893888950E-2,2.771951014E0
1.684592092E0,2.753852129E0,-3.901786730E-2,-2.649549954E-2,2.754255971E0
1.687100009E0,2.734305143E0,-3.596363217E-2,-2.588465251E-2,2.734664150E0
1.689607925E0,2.717812061E0,-3.474193811E-2,-3.016058356E-2,2.718201439E0
1.692115842E0,2.700708389E0,-3.718532622E-2,-2.954973653E-2,2.701126013E0
1.694623759E0,2.682383060E0,-3.474193811E-2,-3.016058356E-2,2.682777580E0
1.697131675E0,2.670166016E0,-3.596363217E-2,-3.199312463E-2,2.670599838E0
1.699639592E0,2.654894829E0,-3.474193811E-2,-3.138227761E-2,2.655307591E0
1.702147561E0,2.643899679E0,-3.535278514E-2,-2.832804248E-2,2.644287770E0
1.704655477E0,2.634737015E0,-3.657447919E-2,-2.710634656E-2,2.635130278E0
1.707163394E0,2.629239321E0,-3.535278514E-2,-3.138227761E-2,2.629664251E0
1.709671311E0,2.626185179E0,-3.596363217E-2,-3.138227761E-2,2.626618896E0
1.712179227E0,2.624352455E0,-3.535278514E-2,-3.077143058E-2,2.624770944E0
1.714687144E0,2.621298313E0,-3.413109109E-2,-2.954973653E-2,2.621687046E0
1.717195113E0,2.621909142E0,-3.413109109E-2,-2.893888950E-2,2.622290971E0
1.719703029E0,2.624352455E0,-3.779617324E-2,-2.832804248E-2,2.624777483E0
1.722210946E0,2.624963284E0,-3.352024406E-2,-2.649549954E-2,2.625311002E0
1.724718863E0,2.629850149E0,-3.596363217E-2,-3.077143058E-2,2.630276045E0
1.727226779E0,2.632904291E0,-3.474193811E-2,-3.260397166E-2,2.633335343E0
1.729734696E0,2.639012814E0,-3.657447919E-2,-3.016058356E-2,2.639438574E0
1.732242613E0,2.642067194E0,-3.657447919E-2,-3.077143058E-2,2.642499504E0
1.734750529E0,2.645121336E0,-3.352024406E-2,-3.260397166E-2,2.645534636E0
1.737258498E0,2.645121336E0,-3.168770298E-2,-2.954973653E-2,2.645476173E0
1.739766415E0,2.649397373E0,-3.901786730E-2,-3.016058356E-2,2.649856316E0
1.742274331E0,2.646342993E0,-3.535278514E-2,-3.138227761E-2,2.646765177E0
1.744782248E0,2.648175478E0,-3.657447919E-2,-3.016058356E-2,2.648599765E0
1.747290165E0,2.646953821E0,-3.596363217E-2,-3.260397166E-2,2.647398900E0
1.749798081E0,2.646342993E0,-3.535278514E-2,-3.077143058E-2,2.646758005E0
1.752305998E0,2.642678022E0,-3.901786730E-2,-2.954973653E-2,2.643131232E0
1.754813967E0,2.635958672E0,-3.657447919E-2,-2.771719359E-2,2.636358104E0
1.757321884E0,2.624352455E0,-3.718532622E-2,-2.954973653E-2,2.624782228E0
1.759829800E0,2.606637955E0,-3.229855001E-2,-3.138227761E-2,2.607026941E0
1.762337717E0,2.586479902E0,-3.413109109E-2,-3.138227761E-2,2.586895449E0
1.764845634E0,2.564489603E0,-3.352024406E-2,-3.016058356E-2,2.564886000E0
1.767353550E0,2.538223028E0,-3.718532622E-2,-2.832804248E-2,2.538653456E0
1.769861467E0,2.507680655E0,-3.046600707E-2,-2.771719359E-2,2.508018877E0
1.772369436E0,2.476527452E0,-3.352024406E-2,-2.588465251E-2,2.476889550E0
1.774877352E0,2.442320108E0,-3.535278514E-2,-2.527380548E-2,2.442706715E0
1.777385269E0,2.405669212E0,-3.535278514E-2,-2.771719359E-2,2.406088615E0
1.779893186E0,2.364131689E0,-3.229855001E-2,-2.710634656E-2,2.364507685E0
1.782401102E0,2.318318129E0,-3.413109109E-2,-2.649549954E-2,2.318720744E0
1.784909019E0,2.273115396E0,-3.046600707E-2,-2.649549954E-2,2.273473949E0
1.787416936E0,2.224247694E0,-3.046600707E-2,-2.527380548E-2,2.224599907E0
1.789924904E0,2.175379753E0,-3.229855001E-2,-2.283041552E-2,2.175739298E0
1.792432821E0,2.126512051E0,-2.741177008E-2,-2.344126441E-2,2.126817905E0
1.794940738E0,2.075200796E0,-3.046600707E-2,-2.527380548E-2,2.075578302E0
1.797448654E0,2.022667885E0,-2.557922900E-2,-2.466295846E-2,2.022979963E0
1.799956571E0,1.969524264E0,-2.619007602E-2,-2.527380548E-2,1.969860531E0
1.802464488E0,1.915158868E0,-2.741177008E-2,-2.405211143E-2,1.915506042E0
1.804972404E0,1.857739210E0,-2.313583903E-2,-2.099787444E-2,1.858001924E0
1.807480373E0,1.799708724E0,-2.435753495E-2,-2.160872146E-2,1.800003255E0
1.809988290E0,1.741067410E0,-2.191414498E-2,-2.099787444E-2,1.741331923E0
1.812496206E0,1.684869409E0,-2.130329795E-2,-2.221956849E-2,1.685150576E0
1.815004123E0,1.625617266E0,-2.130329795E-2,-1.977618039E-2,1.625877124E0
1.817512040E0,1.563921690E0,-1.763821393E-2,-1.733279042E-2,1.564117190E0
1.820019956E0,1.502226114E0,-1.947075687E-2,-1.794363745E-2,1.502459445E0
1.822527873E0,1.438698053E0,-1.641651988E-2,-1.855448633E-2,1.438911345E0
1.825035842E0,1.369672298E0,-1.641651988E-2,-1.366770733E-2,1.369838864E0
1.827543759E0,1.297592282E0,-1.702736691E-2,-1.427855436E-2,1.297782547E0
1.830051675E0,1.224901438E0,-1.397313084E-2,-1.366770733E-2,1.225057381E0
1.832559592E0,1.152821541E0,-1.275143679E-2,-1.244601328E-2,1.152959239E0
1.835067509E0,1.077687263E0,-1.275143679E-2,-1.366770733E-2,1.077849360E0
1.837575425E0,1.004385591E0,-9.697199799E-3,-1.061347127E-2,1.004488475E0
1.840083342E0,9.347490072E-1,-1.336228382E-2,-1.305686031E-2,9.349356870E-1
1.842591311E0,8.632798791E-1,-1.458397787E-2,-1.550024934E-2,8.635421818E-1
1.845099227E0,7.936432958E-1,-7.864658721E-3,-1.427855436E-2,7.938106896E-1
1.847607144E0,7.240067124E-1,-9.697199799E-3,-1.122431830E-2,7.241586433E-1
1.850115061E0,6.574243903E-1,-7.253811229E-3,-1.000262424E-2,6.575404925E-1
1.852622977E0,5.920637250E-1,-2.977880416E-3,-6.948387716E-3,5.921119846E-1
1.855130894E0,5.328115225E-1,-7.253811229E-3,-6.948387716E-3,5.329061985E-1
1.857638863E0,4.717268050E-1,-6.642963737E-3,-3.283303929E-3,4.717850014E-1
1.860146779E0,4.155288339E-1,-5.421269219E-3,-5.726693198E-3,4.156036537E-1
1.862654696E0,3.581092060E-1,-6.642963737E-3,-8.170082234E-3,3.582639845E-1
1.865162613E0,3.074088693E-1,-3.588727675E-3,-5.115845706E-3,3.074723788E-1
1.867670529E0,2.530434728E-1,4.352286924E-3,-3.894151188E-3,2.531108570E-1
1.870178446E0,2.035648525E-1,-5.421269219E-3,-5.726693198E-3,2.037175357E-1
1.872686363E0,1.559187621E-1,-2.367033157E-3,-1.450762269E-3,1.559434767E-1
1.875194331E0,1.081963181E-1,7.635590737E-5,-1.450762269E-3,1.082060710E-1
1.877702248E0,6.482616812E-2,-1.145338640E-3,-3.283303929E-3,6.491936505E-2
1.880210165E0,2.451024577E-2,-2.367033157E-3,-3.894151188E-3,2.493029096E-2
1.882718081E0,-1.641651988E-2,1.908897655E-3,-2.061609412E-3,1.665521686E-2
1.885225998E0,-5.612159148E-2,-1.756185899E-3,-8.399150101E-4,5.615534415E-2
1.887733915E0,-9.460496902E-2,-5.344913807E-4,1.603474026E-3,9.462006645E-2
1.890241831E0,-1.282015741E-1,-1.756185899E-3,2.214321401E-3,1.282327221E-1
1.892749800E0,-1.630198658E-1,3.130592173E-3,9.926267667E-4,1.630529440E-1
1.895257717E0,-1.935622245E-1,4.352286924E-3,2.825168660E-3,1.936317607E-1
1.897765634E0,-2.222720534E-1,-5.344913807E-4,9.926267667E-4,2.222749124E-1
1.900273550E0,-2.528144121E-1,1.298050396E-3,9.926267667E-4,2.528196931E-1
1.902781467E0,-2.778591514E-1,2.519744914E-3,2.214321401E-3,2.778793989E-1
1.905289384E0,-3.029038906E-1,4.963133950E-3,3.436015919E-3,3.029640339E-1
1.907797300E0,-3.267269135E-1,3.741439432E-3,6.490251981E-3,3.268127869E-1
1.910305269E0,-3.487174213E-1,1.908897655E-3,5.268557463E-3,3.487624428E-1
1.912813186E0,-3.707079291E-1,8.017370477E-3,3.436015919E-3,3.708105354E-1
1.915321102E0,-3.872008026E-1,1.908897655E-3,4.046862945E-3,3.872266552E-1
1.917829019E0,-4.049153626E-1,6.795675959E-3,6.490251981E-3,4.050243887E-1
1.920336936E0,-4.201865494E-1,8.628217503E-3,7.101099472E-3,4.203351140E-1
1.922844852E0,-4.366794229E-1,8.628217503E-3,5.879404955E-3,4.368042260E-1
1.925352769E0,-4.476746917E-1,4.963133950E-3,8.322793990E-3,4.477795564E-1
1.927860738E0,-4.592807889E-1,5.573981442E-3,1.198787708E-2,4.594710236E-1
1.930368654E0,-4.635567069E-1,6.795675959E-3,8.322793990E-3,4.636812166E-1
1.932876571E0,-4.708868861E-1,9.849912487E-3,-3.283303929E-3,4.710013380E-1
1.935384488E0,-4.733302593E-1,6.795675959E-3,-2.290677221E-4,4.733790955E-1
1.937892404E0,-4.776062071E-1,9.849912487E-3,8.322793990E-3,4.777802620E-1
1.940400321E0,-4.776062071E-1,4.963133950E-3,7.711946499E-3,4.776942494E-1
1.942908290E0,-4.782170355E-1,8.017370477E-3,1.443126611E-2,4.785019046E-1
1.945416206E0,-4.727194309E-1,1.412584260E-2,1.198787708E-2,4.730823491E-1
1.947924123E0,-4.672217965E-1,1.107160654E-2,4.657710437E-3,4.673761674E-1
1.950432040E0,-4.556156993E-1,8.628217503E-3,1.603474026E-3,4.557002114E-1
1.952939956E0,-4.501180649E-1,7.406522986E-3,-2.061609412E-3,4.501837171E-1
1.955447873E0,-4.446204603E-1,3.130592173E-3,3.817795368E-4,4.446316454E-1
1.957955842E0,-4.354577363E-1,9.849912487E-3,1.015533600E-2,4.356874932E-1
1.960463759E0,-4.305709600E-1,8.628217503E-3,8.322793990E-3,4.307378166E-1
1.962971675E0,-4.269058704E-1,4.352286924E-3,1.320957206E-2,4.271323652E-1
1.965479592E0,-4.140780866E-1,8.628217503E-3,4.657710437E-3,4.141941600E-1
1.967987509E0,-4.073587656E-1,1.229330152E-2,2.214321401E-3,4.075502330E-1
1.970495425E0,-4.061370790E-1,1.046075951E-2,5.268557463E-3,4.063059342E-1
1.973003342E0,-3.951418102E-1,3.130592173E-3,8.322793990E-3,3.952418496E-1
1.975511311E0,-3.872008026E-1,6.795675959E-3,3.817795368E-4,3.872606209E-1
1.978019227E0,-3.878116608E-1,3.741439432E-3,7.711946499E-3,3.879063762E-1
1.980527144E0,-3.829248846E-1,8.628217503E-3,1.015533600E-2,3.831566836E-1
1.983035061E0,-3.749838471E-1,1.908897655E-3,5.268557463E-3,3.750257154E-1
1.985542977E0,-3.700970709E-1,1.229330152E-2,-7.559234742E-3,3.703783325E-1
1.988050894E0,-3.737621605E-1,4.963133950E-3,3.817795368E-4,3.737953064E-1
1.990558811E0,-3.731513321E-1,8.017370477E-3,1.198787708E-2,3.734299186E-1
1.993066779E0,-3.700970709E-1,6.184828468E-3,8.933641016E-3,3.702565380E-1
1.995574696E0,-3.749838471E-1,-2.977880416E-3,6.490251981E-3,3.750518321E-1
1.998082613E0,-3.786489367E-1,8.628217503E-3,1.015533600E-2,3.788833518E-1
2.000590529E0,-3.774272501E-1,1.908897655E-3,5.879404955E-3,3.774778675E-1
2.003098446E0,-3.792597950E-1,6.795675959E-3,-3.283303929E-3,3.793348829E-1
2.005606363E0,-3.853682578E-1,9.239064530E-3,-5.726693198E-3,3.855215291E-1
2.008114279E0,-3.914767504E-1,3.741439432E-3,9.926267667E-4,3.914958873E-1
2.010622248E0,-3.884224892E-1,1.298050396E-3,9.544488043E-3,3.885419054E-1
2.013130165E0,-3.939201236E-1,6.795675959E-3,3.436015919E-3,3.939937197E-1
2.015638081E0,-4.018611312E-1,6.795675959E-3,5.879404955E-3,4.019615869E-1
2.018145998E0,-3.969743550E-1,4.963133950E-3,8.933641016E-3,3.971058815E-1
2.020653915E0,-3.933092654E-1,1.168245357E-2,-8.399150101E-4,3.934836253E-1
2.023161831E0,-3.975852132E-1,4.963133950E-3,3.436015919E-3,3.976310358E-1
2.025669748E0,-3.981960714E-1,9.849912487E-3,8.933641016E-3,3.984180493E-1
2.028177717E0,-3.945309818E-1,9.849912487E-3,5.268557463E-3,3.946890853E-1
2.030685634E0,-3.896442056E-1,3.741439432E-3,4.657710437E-3,3.896900045E-1
2.033193550E0,-3.859791160E-1,3.741439432E-3,7.101099472E-3,3.860625622E-1
2.035701467E0,-3.817031682E-1,8.628217503E-3,4.046862945E-3,3.818221206E-1
2.038209384E0,-3.737621605E-1,8.017370477E-3,3.817795368E-4,3.738483337E-1
2.040717300E0,-3.676536977E-1,5.573981442E-3,-8.399150101E-4,3.676969080E-1
2.043225269E0,-3.633777499E-1,8.628217503E-3,5.268557463E-3,3.635183530E-1
2.045733186E0,-3.554367423E-1,6.795675959E-3,1.137703005E-2,3.556837019E-1
2.048241102E0,-3.444415033E-1,8.017370477E-3,4.046862945E-3,3.445585647E-1
2.050749019E0,-3.352787793E-1,8.628217503E-3,2.214321401E-3,3.353970918E-1
2.053256936E0,-3.255052269E-1,7.406522986E-3,4.657710437E-3,3.256227934E-1
2.055764852E0,-3.151208162E-1,7.406522986E-3,5.268557463E-3,3.152518725E-1
2.058272769E0,-3.035147190E-1,4.352286924E-3,9.926267667E-4,3.035475455E-1
2.060780738E0,-2.937411666E-1,5.573981442E-3,3.436015919E-3,2.938141393E-1
2.063288654E0,-2.851893008E-1,4.963133950E-3,8.933641016E-3,2.853723531E-1
2.065796571E0,-2.723615170E-1,4.352286924E-3,5.268557463E-3,2.724472353E-1
2.068304488E0,-2.619771063E-1,7.406522986E-3,-4.504998680E-3,2.621204987E-1
2.070812404E0,-2.552577853E-1,6.795675959E-3,2.214321401E-3,2.553578301E-1
2.073320321E0,-2.436517030E-1,5.573981442E-3,5.879404955E-3,2.437863594E-1
2.075828290E0,-2.369323820E-1,4.963133950E-3,9.926267667E-4,2.369864377E-1
2.078336206E0,-2.320456058E-1,2.519744914E-3,7.711946499E-3,2.321873950E-1
2.080844123E0,-2.241045833E-1,3.741439432E-3,6.490251981E-3,2.242297616E-1
2.083352040E0,-2.173852623E-1,3.130592173E-3,-5.726693198E-3,2.174832128E-1
2.085859956E0,-2.167744190E-1,3.130592173E-3,-3.283303929E-3,2.168218841E-1
2.088367873E0,-2.137201875E-1,7.406522986E-3,4.046862945E-3,2.138867744E-1
2.090875842E0,-2.112767994E-1,3.130592173E-3,9.926267667E-4,2.113023235E-1
2.093383759E0,-2.100550979E-1,3.130592173E-3,8.322793990E-3,2.102432250E-1
2.095891675E0,-2.088334113E-1,-2.367033157E-3,7.711946499E-3,2.089891640E-1
2.098399592E0,-2.051683217E-1,-5.344913807E-4,1.603474026E-3,2.051752837E-1
2.100907509E0,-1.990598440E-1,9.239064530E-3,-5.115845706E-3,1.993397945E-1
2.103415425E0,-2.021140903E-1,6.184828468E-3,-8.170082234E-3,2.023736837E-1
2.105923342E0,-2.039466351E-1,6.795675959E-3,-2.672456671E-3,2.040773217E-1
2.108431311E0,-1.996707022E-1,-2.367033157E-3,1.076618303E-2,1.999747556E-1
2.110939227E0,-1.996707022E-1,7.635590737E-5,1.626380906E-2,2.003319911E-1
2.113447144E0,-2.033357769E-1,4.352286924E-3,5.879404955E-3,2.034673143E-1
2.115955061E0,-1.960056126E-1,4.352286924E-3,-5.115845706E-3,1.961206630E-1
2.118462977E0,-1.917296797E-1,6.872031372E-4,-1.488940232E-2,1.923081814E-1
2.120970894E0,-1.929513812E-1,4.352286924E-3,-8.170082234E-3,1.931733112E-1
2.123478811E0,-1.972273141E-1,4.352286924E-3,1.603474026E-3,1.972818465E-1
2.125986779E0,-1.978381574E-1,3.741439432E-3,9.544488043E-3,1.981035894E-1
2.128494696E0,-1.978381574E-1,3.130592173E-3,1.748550311E-2,1.986340352E-1
2.131002613E0,-1.935622245E-1,6.795675959E-3,1.382041909E-2,1.941739425E-1
2.133510529E0,-1.862320602E-1,8.017370477E-3,-7.559234742E-3,1.865577672E-1
2.136018446E0,-1.868429035E-1,6.795675959E-3,-1.427855436E-2,1.875108768E-1
2.138526363E0,-1.813452840E-1,1.908897655E-3,-3.283303929E-3,1.813850490E-1
2.141034331E0,-1.801235825E-1,3.130592173E-3,2.825168660E-3,1.801729368E-1
2.143542248E0,-1.795127392E-1,-5.344913807E-4,1.015533600E-2,1.798005563E-1
2.146050165E0,-1.782910377E-1,7.635590737E-5,1.015533600E-2,1.785800403E-1
2.148558081E0,-1.679066420E-1,3.130592173E-3,3.436015919E-3,1.679709714E-1
2.151065998E0,-1.611873209E-1,6.184828468E-3,-2.672456671E-3,1.613280712E-1
2.153573915E0,-1.575222313E-1,1.290414855E-2,-6.948387716E-3,1.582025616E-1
2.156081884E0,-1.526354551E-1,6.184828468E-3,-4.504998680E-3,1.528271222E-1
2.158589800E0,-1.459161341E-1,8.628217503E-3,1.076618303E-2,1.465669643E-1
2.161097717E0,-1.404185146E-1,-2.977880416E-3,1.748550311E-2,1.415343415E-1
2.163605634E0,-1.312558055E-1,1.908897655E-3,6.490251981E-3,1.314300336E-1
2.166113550E0,-1.239256412E-1,6.795675959E-3,-3.894151188E-3,1.241729043E-1
2.168621467E0,-1.129303873E-1,1.908897655E-3,-8.170082234E-3,1.132416288E-1
2.171129384E0,-1.062110662E-1,4.352286924E-3,-1.244601328E-2,1.070263343E-1
2.173637352E0,-1.062110662E-1,6.795675959E-3,-2.061609412E-3,1.064482129E-1
2.176145269E0,-1.031568274E-1,-5.344913807E-4,5.879404955E-3,1.033256218E-1
2.178653186E0,-9.582666308E-2,-5.344913807E-4,8.933641016E-3,9.624367501E-2
2.181161102E0,-9.277242422E-2,1.298050396E-3,5.879404955E-3,9.296760206E-2
2.183669019E0,-8.605311066E-2,6.872031372E-4,-1.450762269E-3,8.606808243E-2
2.186176936E0,-7.994463295E-2,7.406522986E-3,-9.391776286E-3,8.083443809E-2
2.188684904E0,-7.627955079E-2,6.795675959E-3,-6.337540224E-3,7.684344797E-2
2.191192821E0,-7.261446863E-2,-4.810422193E-3,9.926267667E-4,7.278039932E-2
2.193700738E0,-7.322531193E-2,3.130592173E-3,4.657710437E-3,7.344005162E-2
2.196208654E0,-7.139277458E-2,7.635590737E-5,7.711946499E-3,7.180813472E-2
2.198716571E0,-6.650599837E-2,-4.199574701E-3,3.817795368E-4,6.663955284E-2
2.201224488E0,-6.223006546E-2,1.298050396E-3,-5.115845706E-3,6.245348557E-2
2.203732404E0,-6.161921844E-2,3.130592173E-3,-6.948387716E-3,6.208871701E-2
2.206240373E0,-6.100837141E-2,-3.588727675E-3,-5.115845706E-3,6.132758128E-2
2.208748290E0,-6.100837141E-2,7.635590737E-5,-2.290677221E-4,6.100884923E-2
2.211256206E0,-5.917582661E-2,1.298050396E-3,7.101099472E-3,5.961450330E-2
2.213764123E0,-5.978667364E-2,3.130592173E-3,7.711946499E-3,6.036324271E-2
2.216272040E0,-5.551074445E-2,4.352286924E-3,1.603474026E-3,5.570418548E-2
2.218779956E0,-5.245650932E-2,4.963133950E-3,-4.504998680E-3,5.288301317E-2
2.221287925E0,-4.879142344E-2,-1.145338640E-3,-5.115845706E-3,4.907225977E-2
2.223795842E0,-5.123481527E-2,6.184828468E-3,-5.115845706E-3,5.185971728E-2
2.226303759E0,-5.001311749E-2,6.872031372E-4,2.214321401E-3,5.006682923E-2
2.228811675E0,-4.512634128E-2,-5.344913807E-4,8.322793990E-3,4.589053561E-2
2.231319592E0,-4.573718831E-2,7.635590737E-5,3.817795368E-4,4.573884542E-2
2.233827509E0,-4.573718831E-2,3.130592173E-3,-2.672456671E-3,4.592203204E-2
2.236335477E0,-3.779617324E-2,2.519744914E-3,-6.337540224E-3,3.840656510E-2
2.238843394E0,-3.657447919E-2,2.519744914E-3,-4.504998680E-3,3.693692808E-2
2.241351311E0,-3.352024406E-2,-1.145338640E-3,3.817795368E-4,3.354197845E-2
2.243859227E0,-3.107685409E-2,2.519744914E-3,2.214321401E-3,3.125737024E-2
2.246367144E0,-2.619007602E-2,-1.145338640E-3,2.214321401E-3,2.630846065E-2
2.248875061E0,-2.252499200E-2,1.298050396E-3,2.214321401E-3,2.267076132E-2
2.251382977E0,-1.702736691E-2,3.130592173E-3,-2.672456671E-3,1.751781538E-2
2.253890946E0,-1.275143679E-2,4.963133950E-3,-3.894151188E-3,1.422660368E-2
2.256398863E0,-1.091889478E-2,3.130592173E-3,-3.283303929E-3,1.182382998E-2
2.258906779E0,-7.864658721E-3,3.130592173E-3,9.926267667E-4,8.522838262E-3
2.261414696E0,-9.086352773E-3,3.130592173E-3,2.214321401E-3,9.862334071E-3
2.263922613E0,-8.475505747E-3,-1.756185899E-3,9.926267667E-4,8.712272635E-3
2.266430529E0,-8.475505747E-3,-1.756185899E-3,-8.399150101E-4,8.696197088E-3
2.268938498E0,-1.214058883E-2,2.519744914E-3,-8.399150101E-4,1.242772984E-2
2.271446415E0,-1.397313084E-2,5.573981442E-3,-3.283303929E-3,1.539797842E-2
2.273954331E0,-2.069245093E-2,1.908897655E-3,-2.061609412E-3,2.088232863E-2
2.276462248E0,-2.557922900E-2,2.519744914E-3,9.926267667E-4,2.572219622E-2
2.278970165E0,-3.290939704E-2,6.872031372E-4,2.214321401E-3,3.299096665E-2
2.281478081E0,-4.085041210E-2,6.872031372E-4,3.436015919E-3,4.100042222E-2
2.283986050E0,-4.573718831E-2,-2.367033157E-3,9.926267667E-4,4.580915354E-2
2.286493967E0,-5.428905040E-2,3.741439432E-3,-8.399150101E-4,5.442430357E-2
2.289001884E0,-6.100837141E-2,6.872031372E-4,1.603474026E-3,6.103330861E-2
2.291509800E0,-6.956022978E-2,-4.199574701E-3,2.214321401E-3,6.972205687E-2
2.294017717E0,-7.811209559E-2,1.908897655E-3,9.926267667E-4,7.814172174E-2
2.296525634E0,-8.360971510E-2,3.130592173E-3,9.926267667E-4,8.367419181E-2
2.299033550E0,-8.727480471E-2,-4.199574701E-3,-8.399150101E-4,8.737982274E-2
2.301541519E0,-8.971819282E-2,-1.756185899E-3,2.825168660E-3,8.977984122E-2
2.304049436E0,-9.582666308E-2,-2.367033157E-3,1.603474026E-3,9.586930338E-2
2.306557352E0,-1.001025960E-1,7.635590737E-5,-2.290677221E-4,1.001028872E-1
2.309065269E0,-1.013242900E-1,1.298050396E-3,2.214321401E-3,1.013567951E-1
2.311573186E0,-1.019351333E-1,1.298050396E-3,1.603474026E-3,1.019560075E-1
2.314081102E0,-1.013242900E-1,1.298050396E-3,-2.290677221E-4,1.013328632E-1
2.316589071E0,-1.001025960E-1,7.635590737E-5,-2.290677221E-4,1.001028872E-1
2.319096988E0,-9.888090193E-2,7.635590737E-5,-3.283303929E-3,9.893542683E-2
2.321604904E0,-9.582666308E-2,-2.367033157E-3,9.926267667E-4,9.586103228E-2
2.324112821E0,-9.338327497E-2,-1.145338640E-3,9.926267667E-4,9.339557352E-2
2.326620738E0,-8.971819282E-2,-1.756185899E-3,9.926267667E-4,8.974086928E-2
2.329128654E0,-8.788564801E-2,-1.756185899E-3,2.825168660E-3,8.794858096E-2
2.331636623E0,-8.422056586E-2,-4.810422193E-3,1.603474026E-3,8.437307037E-2
2.334144540E0,-8.299887180E-2,7.635590737E-5,2.825168660E-3,8.304697543E-2
2.336652456E0,-7.811209559E-2,7.635590737E-5,1.603474026E-3,7.812858912E-2
2.339160373E0,-7.566870749E-2,3.130592173E-3,3.817795368E-4,7.573440207E-2
2.341668290E0,-7.139277458E-2,-2.367033157E-3,2.825168660E-3,7.148784992E-2
2.344176206E0,-7.017108053E-2,2.519744914E-3,2.825168660E-3,7.027311887E-2
2.346684123E0,-7.017108053E-2,7.635590737E-5,9.926267667E-4,7.017814247E-2
2.349192092E0,-6.894938648E-2,6.184828468E-3,2.214321401E-3,6.926162876E-2
2.351700009E0,-7.017108053E-2,7.635590737E-5,3.817795368E-4,7.017216064E-2
2.354207925E0,-7.139277458E-2,7.635590737E-5,1.603474026E-3,7.141082006E-2
2.356715842E0,-7.566870749E-2,2.519744914E-3,3.817795368E-4,7.571161181E-2
2.359223759E0,-7.872293890E-2,7.635590737E-5,9.926267667E-4,7.872923375E-2
2.361731675E0,-8.605311066E-2,-2.367033157E-3,3.436015919E-3,8.615420422E-2
2.364239592E0,-9.216158092E-2,7.635590737E-5,2.214321401E-3,9.218820991E-2
2.366747561E0,-9.827005118E-2,3.741439432E-3,2.214321401E-3,9.836617583E-2
2.369255477E0,-1.025459841E-1,6.872031372E-4,2.214321401E-3,1.025721908E-1
2.371763394E0,-1.098761484E-1,7.635590737E-5,3.817795368E-4,1.098768382E-1
2.374271311E0,-1.159846261E-1,8.017370477E-3,3.436015919E-3,1.163121573E-1
2.376779227E0,-1.214822456E-1,1.908897655E-3,2.825168660E-3,1.215300846E-1
2.379287196E0,-1.257581860E-1,-1.145338640E-3,1.603474026E-3,1.257736231E-1
2.381795113E0,-1.324774921E-1,3.130592173E-3,3.817795368E-4,1.325150266E-1
2.384303029E0,-1.355317384E-1,3.741439432E-3,2.214321401E-3,1.356014517E-1
2.386810946E0,-1.361425817E-1,4.352286924E-3,1.603474026E-3,1.362215698E-1
2.389318863E0,-1.398076713E-1,4.352286924E-3,3.817795368E-4,1.398759204E-1
2.391826779E0,-1.398076713E-1,-2.977880416E-3,3.817795368E-4,1.398399030E-1
2.394334748E0,-1.391968131E-1,4.963133950E-3,2.214321401E-3,1.393028668E-1
2.396842665E0,-1.379751265E-1,7.635590737E-5,3.436015919E-3,1.380179248E-1
2.399350581E0,-1.367534250E-1,1.908897655E-3,9.926267667E-4,1.367703493E-1
2.401858498E0,-1.355317384E-1,4.352286924E-3,5.268557463E-3,1.357039138E-1
2.404366415E0,-1.306449622E-1,6.872031372E-4,1.603474026E-3,1.306566092E-1
2.406874331E0,-1.263690293E-1,6.872031372E-4,3.817795368E-4,1.263714745E-1
2.409382248E0,-1.220930964E-1,4.963133950E-3,3.817795368E-4,1.221945279E-1
2.411890217E0,-1.165954694E-1,6.872031372E-4,9.926267667E-4,1.166017197E-1
2.414398134E0,-1.147629321E-1,2.519744914E-3,1.603474026E-3,1.148017893E-1
2.416906050E0,-1.092653051E-1,7.635590737E-5,2.214321401E-3,1.092877667E-1
2.419413967E0,-1.056002229E-1,1.298050396E-3,2.214321401E-3,1.056314122E-1
2.421921884E0,-1.019351333E-1,2.519744914E-3,2.825168660E-3,1.020054023E-1
2.424429800E0,-9.765920788E-2,2.519744914E-3,9.926267667E-4,9.769675177E-2
2.426937769E0,-9.399411827E-2,-5.344913807E-4,-2.290677221E-4,9.399591706E-2
2.429445686E0,-9.093988687E-2,3.130592173E-3,4.657710437E-3,9.111288546E-2
2.431953602E0,-8.666395396E-2,-2.977880416E-3,9.926267667E-4,8.672078180E-2
2.434461519E0,-8.544225991E-2,1.908897655E-3,3.817795368E-4,8.546443368E-2
2.436969436E0,-8.177717775E-2,3.741439432E-3,1.603474026E-3,8.187842389E-2
2.439477352E0,-7.750124484E-2,6.872031372E-4,3.436015919E-3,7.758041896E-2
2.441985321E0,-7.444700599E-2,6.872031372E-4,-2.290677221E-4,7.445053002E-2
2.444493238E0,-7.200361788E-2,4.352286924E-3,-2.290677221E-4,7.213539950E-2
2.447001154E0,-6.956022978E-2,3.130592173E-3,3.436015919E-3,6.971536688E-2
2.449509071E0,-6.589514762E-2,1.298050396E-3,3.436015919E-3,6.599743647E-2
2.452016988E0,-6.161921844E-2,1.908897655E-3,2.825168660E-3,6.171347948E-2
2.454524904E0,-5.856497958E-2,6.872031372E-4,1.603474026E-3,5.859095673E-2
2.457032873E0,-5.612159148E-2,7.635590737E-5,1.603474026E-3,5.614454550E-2
2.459540790E0,-5.428905040E-2,3.130592173E-3,1.603474026E-3,5.440287428E-2
2.462048706E0,-4.940227047E-2,2.519744914E-3,9.926267667E-4,4.947644641E-2
2.464556623E0,-4.818057641E-2,-1.145338640E-3,1.603474026E-3,4.822085517E-2
2.467064540E0,-4.390464723E-2,6.872031372E-4,2.214321401E-3,4.396582213E-2
2.469572456E0,-3.962871432E-2,6.872031372E-4,1.603474026E-3,3.966709437E-2
2.472080425E0,-3.535278514E-2,6.872031372E-4,2.214321401E-3,3.542872965E-2
2.474588342E0,-3.229855001E-2,-4.199574701E-3,2.214321401E-3,3.264561195E-2
2.477096259E0,-2.985516004E-2,4.352286924E-3,9.926267667E-4,3.018705502E-2
2.479604175E0,-2.741177008E-2,2.519744914E-3,2.214321401E-3,2.761625377E-2
2.482112092E0,-2.252499200E-2,-1.145338640E-3,9.926267667E-4,2.257592464E-2
2.484620009E0,-1.947075687E-2,1.908897655E-3,2.825168660E-3,1.976703927E-2
2.487127977E0,-1.580567285E-2,1.908897655E-3,3.817795368E-4,1.592510409E-2
2.489635894E0,-1.275143679E-2,-1.145338640E-3,9.926267667E-4,1.284119343E-2
2.492143811E0,-1.152974181E-2,-1.756185899E-3,2.214321401E-3,1.187107217E-2
2.494651727E0,-1.214058883E-2,1.908897655E-3,2.825168660E-3,1.261028808E-2
2.497159644E0,-9.697199799E-3,7.635590737E-5,-2.290677221E-4,9.700205472E-3
2.499667561E0,-1.214058883E-2,6.872031372E-4,2.825168660E-3,1.248389856E-2
2.502175477E0,-1.397313084E-2,-6.642963737E-3,2.825168660E-3,1.572764861E-2
2.504683446E0,-1.885990985E-2,-1.145338640E-3,9.926267667E-4,1.892071108E-2
2.507191363E0,-2.252499200E-2,-2.977880416E-3,3.817795368E-4,2.272418958E-2
2.509699279E0,-2.985516004E-2,3.130592173E-3,2.214321401E-3,3.010040544E-2
2.512207196E0,-3.474193811E-2,1.908897655E-3,3.817795368E-4,3.479643530E-2
2.514715113E0,-4.268295318E-2,7.635590737E-5,2.825168660E-3,4.277641757E-2
2.517223029E0,-4.512634128E-2,-1.756185899E-3,2.825168660E-3,4.524878390E-2
2.519730998E0,-5.001311749E-2,-4.199574701E-3,1.603474026E-3,5.021473367E-2
2.522238915E0,-5.551074445E-2,6.872031372E-4,3.817795368E-4,5.551631070E-2
2.524746831E0,-6.039752439E-2,-1.145338640E-3,1.603474026E-3,6.042966061E-2
2.527254748E0,-6.467345357E-2,6.872031372E-4,1.603474026E-3,6.469697809E-2
2.529762665E0,-6.772769243E-2,-1.145338640E-3,9.926267667E-4,6.774464872E-2
2.532270581E0,-6.956022978E-2,1.298050396E-3,3.436015919E-3,6.965713680E-2
2.534778550E0,-6.956022978E-2,-1.145338640E-3,2.825168660E-3,6.962699868E-2
2.537286467E0,-7.078192383E-2,1.298050396E-3,1.603474026E-3,7.081198207E-2
2.539794384E0,-7.200361788E-2,2.519744914E-3,2.214321401E-3,7.208171281E-2
2.542302300E0,-7.078192383E-2,3.130592173E-3,-2.290677221E-4,7.085149131E-2
2.544810217E0,-6.956022978E-2,3.741439432E-3,9.926267667E-4,6.966784943E-2
2.547318134E0,-6.833853573E-2,4.963133950E-3,2.825168660E-3,6.857674345E-2
2.549826102E0,-6.467345357E-2,1.298050396E-3,2.825168660E-3,6.474814368E-2
2.552334019E0,-6.100837141E-2,-5.344913807E-4,2.214321401E-3,6.105088274E-2
2.554841936E0,-5.734328553E-2,3.741439432E-3,3.436015919E-3,5.756784667E-2
2.557349852E0,-5.428905040E-2,-1.756185899E-3,1.603474026E-3,5.434111069E-2
2.559857769E0,-5.245650932E-2,2.519744914E-3,2.825168660E-3,5.259292788E-2
2.562365686E0,-5.001311749E-2,1.908897655E-3,3.817795368E-4,5.005098967E-2
2.564873654E0,-1.532463133E-1,-8.055548370E-2,4.046862945E-3,1.731761981E-1
2.567381571E0,-2.937411666E-1,3.672719002E-2,2.909160033E-2,2.974543337E-1
2.569889488E0,-3.902550340E-1,-4.085041210E-2,8.322793990E-3,3.924754981E-1
2.572397404E0,-4.660001099E-1,1.656923257E-2,-1.450762269E-3,4.662968439E-1
2.574905321E0,-5.362475514E-1,2.084516361E-2,1.076618303E-2,5.367605313E-1
2.577413238E0,-6.547518969E-1,3.245126083E-2,3.817795368E-4,6.555557006E-1
2.579921154E0,-7.518765926E-1,1.046075951E-2,1.565296017E-2,7.521122610E-1
2.582429123E0,-8.392277956E-1,2.519744914E-3,1.198787708E-2,8.393171934E-1
2.584937040E0,-9.442934990E-1,-5.344913807E-4,1.259872504E-2,9.443776923E-1
2.587444956E0,-1.075014830E0,-8.475505747E-3,2.053973824E-2,1.075244437E0
2.589952873E0,-1.211233735E0,6.184828468E-3,2.053973824E-2,1.211423664E0
2.592460790E0,-1.337679148E0,1.779092662E-2,1.443126611E-2,1.337875286E0
2.594968759E0,-1.475730658E0,3.794888780E-2,1.504211407E-2,1.476295146E0
2.597476675E0,-1.651654601E0,2.878617682E-2,1.076618303E-2,1.651940518E0
2.599984592E0,-1.808031559E0,3.428380191E-2,2.725905925E-2,1.808562013E0
2.602492509E0,-1.917984009E0,3.855973482E-2,3.336753324E-2,1.918661748E0
2.605000425E0,-2.003502607E0,3.855973482E-2,1.870719716E-2,2.003960955E0
2.607508342E0,-2.093908072E0,3.611634299E-2,1.076618303E-2,2.094247195E0
2.610016311E0,-2.191643715E0,2.634278871E-2,1.626380906E-2,2.191862365E0
2.612524227E0,-2.258225918E0,2.817532979E-2,2.603736520E-2,2.258551768E0
2.615032144E0,-2.302206993E0,2.451024577E-2,2.542651631E-2,2.302477861E0
2.617540061E0,-2.324808359E0,3.917058185E-2,2.176143415E-2,2.325240160E0
2.620047977E0,-2.337635994E0,4.466820508E-2,2.664821222E-2,2.338214579E0
2.622555894E0,-2.349242210E0,4.283566400E-2,3.031329438E-2,2.349828239E0
2.625063811E0,-2.359626532E0,3.184041381E-2,2.909160033E-2,2.360020657E0
2.627571779E0,-2.369400263E0,3.245126083E-2,2.970244735E-2,2.369808626E0
2.630079696E0,-2.368178368E0,2.939702384E-2,2.664821222E-2,2.368510733E0
2.632587613E0,-2.367567539E0,3.122956678E-2,2.786990628E-2,2.367937514E0
2.635095529E0,-2.363291740E0,3.000787087E-2,2.481566928E-2,2.363612519E0
2.637603446E0,-2.348631382E0,4.222481698E-2,2.725905925E-2,2.349169079E0
2.640111415E0,-2.320532322E0,3.489464894E-2,2.359397523E-2,2.320914598E0
2.642619331E0,-2.282659769E0,4.161396995E-2,1.992889121E-2,2.283126038E0
2.645127248E0,-2.241733074E0,2.695363574E-2,2.420482226E-2,2.242025769E0
2.647635165E0,-2.200195551E0,3.306210786E-2,2.359397523E-2,2.200570435E0
2.650143081E0,-2.153160334E0,2.512109280E-2,2.298312820E-2,2.153429524E0
2.652650998E0,-2.104903221E0,2.084516361E-2,2.420482226E-2,2.105145592E0
2.655158967E0,-2.054813862E0,2.756448276E-2,2.786990628E-2,2.055187714E0
2.657666884E0,-2.004724264E0,2.756448276E-2,2.603736520E-2,2.005082821E0
2.660174800E0,-1.946083069E0,2.695363574E-2,2.359397523E-2,1.946412722E0
2.662682717E0,-1.886830807E0,2.878617682E-2,2.053973824E-2,1.887162160E0
2.665190634E0,-1.826967835E0,2.756448276E-2,1.626380906E-2,1.827248145E0
2.667698550E0,-1.760385394E0,2.389939874E-2,1.748550311E-2,1.760634448E0
2.670206467E0,-1.696246505E0,2.695363574E-2,1.748550311E-2,1.696550750E0
2.672714436E0,-1.630885839E0,2.328855172E-2,1.748550311E-2,1.631145831E0
2.675222352E0,-1.566136003E0,2.389939874E-2,1.870719716E-2,1.566430056E0
2.677730269E0,-1.499553680E0,1.901262067E-2,2.237228118E-2,1.499841071E0
2.680238186E0,-1.433582187E0,2.084516361E-2,1.565296017E-2,1.433819173E0
2.682746102E0,-1.368832350E0,1.718007959E-2,1.687465608E-2,1.369044160E0
2.685254019E0,-1.283924580E0,3.184041381E-2,-8.399150101E-4,1.284319603E0
2.687761988E0,-1.134877801E0,2.817532979E-2,-2.290677221E-4,1.135227521E0
2.690269904E0,-9.528453946E-1,1.412584260E-2,5.535803363E-2,9.545566496E-1
2.692777821E0,-8.099071383E-1,-1.145338640E-3,7.124006003E-2,8.130350735E-1
2.695285738E0,-7.091172934E-1,2.519744914E-3,1.992889121E-2,7.094017519E-1
2.697793654E0,-5.771743059E-1,1.107160654E-2,-1.488940232E-2,5.774724705E-1
2.700301623E0,-4.269058704E-1,8.017370477E-3,-3.138227761E-2,4.281328623E-1
2.702809540E0,-3.212293088E-1,9.849912487E-3,-7.559234742E-3,3.214691769E-1
2.705317456E0,-2.589228749E-1,1.534753758E-2,-9.391776286E-3,2.595473127E-1
2.707825373E0,-1.721825749E-1,8.628217503E-3,-2.061609412E-3,1.724109494E-1
2.710333290E0,-4.329380020E-2,-1.756185899E-3,1.931804419E-2,4.744074363E-2
2.712841206E0,7.215633243E-2,-1.275143679E-2,1.382041909E-2,7.456634250E-2
2.715349175E0,1.711899489E-1,-8.475505747E-3,-2.061609412E-3,1.714120271E-1
2.717857092E0,2.884726226E-1,1.298050396E-3,-3.894151188E-3,2.885018256E-1
2.720365009E0,4.161396921E-1,7.635590737E-5,8.933641016E-3,4.162355812E-1
2.722872925E0,5.334223509E-1,-5.344913807E-4,2.053973824E-2,5.338179193E-1
2.725380842E0,6.537593007E-1,-4.199574701E-3,3.436015919E-3,6.537818183E-1
2.727888759E0,7.924215794E-1,-1.214058883E-2,-1.305686031E-2,7.926221262E-1
2.730396727E0,9.341381788E-1,-1.519482583E-2,-1.672194339E-2,9.344113887E-1
2.732904644E0,1.074633002E0,-2.252499200E-2,-2.527380548E-2,1.075166141E0
2.735412561E0,1.220014691E0,-1.885990985E-2,-3.626905754E-2,1.220699385E0
2.737920477E0,1.378834963E0,-1.397313084E-2,-2.832804248E-2,1.379196716E0
2.740428394E0,1.535822749E0,-2.191414498E-2,-1.794363745E-2,1.536083891E0
2.742936311E0,1.687923670E0,-2.802261710E-2,-1.122431830E-2,1.688193581E0
2.745444279E0,1.836970448E0,-2.680092305E-2,-1.488940232E-2,1.837226282E0
2.747952196E0,1.976854444E0,-2.924431302E-2,-1.977618039E-2,1.977169648E0
2.750460113E0,2.106964827E0,-4.023956135E-2,-2.466295846E-2,2.107493360E0
2.752968029E0,2.226691008E0,-3.718532622E-2,-2.710634656E-2,2.227166439E0
2.755475946E0,2.340308666E0,-3.596363217E-2,-3.626905754E-2,2.340865968E0
2.757983863E0,2.445985079E0,-3.779617324E-2,-3.504735976E-2,2.446528127E0
2.760491779E0,2.534558058E0,-3.352024406E-2,-2.710634656E-2,2.534924636E0
2.762999748E0,2.607248783E0,-4.085041210E-2,-2.893888950E-2,2.607729363E0
2.765507665E0,2.665890217E0,-5.551074445E-2,-3.077143058E-2,2.666645640E0
2.768015581E0,2.702540874E0,-4.818057641E-2,-3.321481869E-2,2.703174388E0
2.770523498E0,2.726364136E0,-5.612159148E-2,-2.893888950E-2,2.727095248E0
2.773031415E0,2.736748457E0,-4.573718831E-2,-2.710634656E-2,2.737264832E0
2.775539384E0,2.731861591E0,-4.329380020E-2,-2.588465251E-2,2.732327236E0
2.778047300E0,2.704984426E0,-4.634803534E-2,-2.405211143E-2,2.705488383E0
2.780555217E0,2.657338381E0,-4.146125913E-2,-2.771719359E-2,2.657806342E0
2.783063134E0,2.587701797E0,-5.245650932E-2,-2.710634656E-2,2.588375365E0
2.785571050E0,2.492409468E0,-4.512634128E-2,-2.893888950E-2,2.492985921E0
2.788078967E0,2.386121988E0,-5.245650932E-2,-2.832804248E-2,2.386866629E0
2.790586936E0,2.273726225E0,-3.962871432E-2,-2.527380548E-2,2.274211984E0
2.793094852E0,2.158276081E0,-4.085041210E-2,-2.221956849E-2,2.158776993E0
2.795602769E0,2.026943922E0,-4.695888236E-2,-6.948387716E-3,2.027499711E0
2.798110686E0,1.879729748E0,-3.962871432E-2,-2.672456671E-3,1.880149330E0
2.800618602E0,1.728850484E0,-4.268295318E-2,-1.366770733E-2,1.729431304E0
2.803126519E0,1.570030212E0,-2.924431302E-2,-1.061347127E-2,1.570338417E0
2.805634436E0,1.402047157E0,-2.069245093E-2,-1.488940232E-2,1.402278896E0
2.808142404E0,1.226123214E0,-7.864658721E-3,-2.038702741E-2,1.226317911E0
2.810650321E0,1.044090629E0,-7.253811229E-3,-2.099787444E-2,1.044326946E0
2.813158238E0,8.614473343E-1,-7.253811229E-3,-1.611109637E-2,8.616285133E-1
2.815666154E0,6.775823236E-1,-1.580567285E-2,-2.290677221E-4,6.777666833E-1
2.818174071E0,4.924955964E-1,-1.275143679E-2,2.214321401E-3,4.926656217E-1
2.820682040E0,3.177932799E-1,-1.397313084E-2,-1.000262424E-2,3.182575523E-1
2.823189956E0,1.589729935E-1,-2.367033157E-3,-6.337540224E-3,1.591168750E-1
2.825697873E0,1.962346770E-2,1.046075951E-2,-8.399150101E-4,2.225339146E-2
2.828205790E0,-1.086544544E-1,1.412584260E-2,-3.894151188E-3,1.096380148E-1
2.830713706E0,-2.222720534E-1,2.328855172E-2,-3.894151188E-3,2.235226762E-1
2.833221623E0,-3.084014952E-1,1.168245357E-2,-2.290677221E-4,3.086227705E-1
2.835729592E0,-3.743730187E-1,1.351499557E-2,5.268557463E-3,3.746539336E-1
2.838237509E0,-4.238516390E-1,1.046075951E-2,-2.061609412E-3,4.239857187E-1
2.840745425E0,-4.501180649E-1,1.290414855E-2,-7.559234742E-3,4.503664413E-1
2.843253342E0,-4.641675651E-1,1.473669056E-2,-6.948387716E-3,4.644534192E-1
2.845761259E0,-4.714977145E-1,2.023431472E-2,-8.399150101E-4,4.719324398E-1
2.848269175E0,-4.745519757E-1,1.779092662E-2,3.436015919E-3,4.748977795E-1
2.850777144E0,-4.824929833E-1,1.229330152E-2,9.544488043E-3,4.827439295E-1
2.853285061E0,-4.769953489E-1,6.184828468E-3,1.443126611E-2,4.772536814E-1
2.855792977E0,-4.678326547E-1,1.298050396E-3,1.198787708E-2,4.679880201E-1
2.858300894E0,-4.513397813E-1,2.519744914E-3,7.711946499E-3,4.514126952E-1
2.860808811E0,-4.397336841E-1,7.406522986E-3,6.490251981E-3,4.398439415E-1
2.863316727E0,-4.330143631E-1,1.168245357E-2,7.711946499E-3,4.332405711E-1
2.865824696E0,-4.195757210E-1,1.473669056E-2,1.603474026E-3,4.198375005E-1
2.868332613E0,-4.018611312E-1,1.046075951E-2,-2.290677221E-4,4.019973243E-1
2.870840529E0,-3.798706532E-1,1.168245357E-2,-2.290677221E-4,3.800503195E-1
2.873348446E0,-3.542150557E-1,1.290414855E-2,2.214321401E-3,3.544569451E-1
2.875856363E0,-3.224509954E-1,1.718007959E-2,-2.061609412E-3,3.229149266E-1
2.878364331E0,-2.870218456E-1,1.290414855E-2,-3.894151188E-3,2.873381654E-1
2.880872248E0,-2.497601658E-1,1.107160654E-2,-1.450762269E-3,2.500096510E-1
2.883380165E0,-2.143310308E-1,3.130592173E-3,6.490251981E-3,2.144521270E-1
2.885888081E0,-1.801235825E-1,6.872031372E-4,2.825168660E-3,1.801470477E-1
2.888395998E0,-1.483595222E-1,-1.145338640E-3,-1.450762269E-3,1.483710361E-1
2.890903915E0,-1.178171635E-1,3.741439432E-3,-1.450762269E-3,1.178854829E-1
2.893411831E0,-8.177717775E-2,7.635590737E-5,-2.061609412E-3,8.180319593E-2
2.895919748E0,-4.879142344E-2,4.963133950E-3,-6.337540224E-3,4.945098701E-2
2.898427717E0,-1.702736691E-2,3.741439432E-3,-4.504998680E-3,1.800623797E-2
2.900935634E0,1.718007959E-2,6.872031372E-4,-2.672456671E-3,1.740027033E-2
2.903443550E0,5.016583204E-2,-1.145338640E-3,1.603474026E-3,5.020451806E-2
2.905951467E0,8.131904155E-2,1.908897655E-3,-3.894151188E-3,8.143460458E-2
2.908459384E0,1.125486046E-1,-6.642963737E-3,-5.726693198E-3,1.128898241E-1
2.910967352E0,1.437018216E-1,1.298050396E-3,-4.504998680E-3,1.437782789E-1
2.913475269E0,1.797417998E-1,-6.642963737E-3,7.711946499E-3,1.800297689E-1
2.915983186E0,2.096733153E-1,-1.145338640E-3,2.214321401E-3,2.096881355E-1
2.918491102E0,2.377723008E-1,1.908897655E-3,-6.948387716E-3,2.378814642E-1
2.920999019E0,2.707580328E-1,-1.275143679E-2,-3.894151188E-3,2.710861042E-1
2.923506936E0,3.006895781E-1,-1.756185899E-3,-3.894151188E-3,3.007199211E-1
2.926014904E0,3.330644667E-1,-6.032116711E-3,-3.283303929E-3,3.331352661E-1
2.928522821E0,3.727695346E-1,-3.588727675E-3,-8.399150101E-4,3.727877551E-1
2.931030738E0,4.094203711E-1,-1.336228382E-2,-8.399150101E-4,4.096392270E-1
2.933538654E0,4.289674759E-1,-1.214058883E-2,-2.290677221E-4,4.291393034E-1
2.936046571E0,4.362976551E-1,-1.152974181E-2,-4.504998680E-3,4.364732223E-1
2.938554540E0,4.424061179E-1,-1.275143679E-2,-6.337540224E-3,4.426352186E-1
2.941062456E0,4.411844313E-1,-3.588727675E-3,-6.948387716E-3,4.412537382E-1
2.943570373E0,4.417952895E-1,-1.030804776E-2,-2.672456671E-3,4.419236085E-1
2.946078290E0,4.320217371E-1,-1.756185899E-3,-2.290677221E-4,4.320253673E-1
2.948586206E0,4.246915579E-1,-7.864658721E-3,1.603474026E-3,4.247673991E-1
2.951094123E0,4.106420577E-1,-1.580567285E-2,3.436015919E-3,4.109604908E-1
2.953602040E0,3.892624080E-1,-2.130329795E-2,1.603474026E-3,3.898482063E-1
2.956110009E0,3.697153032E-1,-7.864658721E-3,-8.399150101E-4,3.697998969E-1
2.958617925E0,3.599417508E-1,-5.421269219E-3,-9.391776286E-3,3.601050674E-1
2.961125842E0,3.428380191E-1,-3.588727675E-3,-5.726693198E-3,3.429046243E-1
2.963633759E0,3.135173619E-1,-1.145338640E-3,1.603474026E-3,3.135235543E-1
2.966141675E0,2.744231224E-1,-1.030804776E-2,1.198787708E-2,2.748781824E-1
2.968649644E0,2.334963679E-1,-7.864658721E-3,-8.399150101E-4,2.336302895E-1
2.971157561E0,1.956238300E-1,-1.214058883E-2,-5.726693198E-3,1.960838386E-1
2.973665477E0,1.510319859E-1,-6.642963737E-3,1.603474026E-3,1.511865102E-1
2.976173394E0,9.781191498E-2,7.406522986E-3,-3.894151188E-3,9.816919939E-2
2.978681311E0,4.039227590E-2,-4.810422193E-3,4.046862945E-3,4.087851775E-2
2.981189227E0,-3.840702027E-2,1.298050396E-3,1.603474026E-3,3.846238773E-2
2.983697196E0,-1.080436110E-1,4.963133950E-3,-2.061609412E-3,1.081771918E-1
2.986205113E0,-1.636307091E-1,-5.344913807E-4,3.436015919E-3,1.636676536E-1
2.988713029E0,-2.112767994E-1,4.963133950E-3,3.436015919E-3,2.113630168E-1
2.991220946E0,-2.497601658E-1,8.628217503E-3,7.711946499E-3,2.500281198E-1
2.993728863E0,-2.851893008E-1,8.628217503E-3,4.657710437E-3,2.853578064E-1
2.996236779E0,-3.200076222E-1,6.184828468E-3,-5.726693198E-3,3.201186115E-1
2.998744748E0,-3.511608243E-1,1.168245357E-2,-2.672456671E-3,3.513652605E-1
3.001252665E0,-3.829248846E-1,1.168245357E-2,5.268557463E-3,3.831392758E-1
3.003760581E0,-4.140780866E-1,6.184828468E-3,1.320957206E-2,4.143348968E-1
3.006268498E0,-4.427879155E-1,6.184828468E-3,1.259872504E-2,4.430102911E-1
3.008776415E0,-4.623350203E-1,1.229330152E-2,-4.504998680E-3,4.625203685E-1
3.011284331E0,-4.678326547E-1,2.519744914E-3,8.933641016E-3,4.679247289E-1
3.013792300E0,-4.739411175E-1,-1.756185899E-3,2.725905925E-2,4.747276307E-1
3.016300217E0,-4.782170355E-1,1.351499557E-2,3.436015919E-3,4.784203114E-1
3.018808134E0,-4.757736623E-1,7.406522986E-3,-1.244601328E-2,4.759940521E-1
3.021316050E0,-4.788278937E-1,1.290414855E-2,-5.726693198E-3,4.790359735E-1
3.023823967E0,-4.873797596E-1,1.718007959E-2,1.382041909E-2,4.878782524E-1
3.026331936E0,-4.904339910E-1,1.901262067E-2,2.053973824E-2,4.912319819E-1
3.028839852E0,-4.916556776E-1,6.184828468E-3,3.817795368E-4,4.916947255E-1
3.031347769E0,-4.898231328E-1,6.872031372E-4,9.926267667E-4,4.898246206E-1
3.033855686E0,-4.898231328E-1,1.908897655E-3,1.687465608E-2,4.901174342E-1
3.036363602E0,-4.843255281E-1,-7.253811229E-3,1.992889121E-2,4.847896407E-1
3.038871519E0,-4.782170355E-1,-1.756185899E-3,4.046862945E-3,4.782373829E-1
3.041379436E0,-4.714977145E-1,1.908897655E-3,-1.450762269E-3,4.715038106E-1
3.043887404E0,-4.684434831E-1,6.184828468E-3,7.711946499E-3,4.685477810E-1
3.046395321E0,-4.660001099E-1,1.656923257E-2,1.626380906E-2,4.665781321E-1
3.048903238E0,-4.592807889E-1,1.351499557E-2,6.490251981E-3,4.595254308E-1
3.051411154E0,-4.482855201E-1,8.017370477E-3,-8.399150101E-4,4.483579945E-1
3.053919071E0,-4.324035048E-1,-3.588727675E-3,7.711946499E-3,4.324871606E-1
3.056427040E0,-4.207974076E-1,-4.199574701E-3,1.443126611E-2,4.210657385E-1
3.058934956E0,-4.024719894E-1,-7.864658721E-3,7.711946499E-3,4.026226884E-1
3.061442873E0,-3.792597950E-1,-9.697199799E-3,7.101099472E-3,3.794501988E-1
3.063950790E0,-3.548259139E-1,6.872031372E-4,8.933641016E-3,3.549390249E-1
3.066458706E0,-3.273377717E-1,3.741439432E-3,5.879404955E-3,3.274119462E-1
3.068966623E0,-2.986279428E-1,-1.756185899E-3,8.933641016E-3,2.987667022E-1
3.071474592E0,-2.589228749E-1,-1.756185899E-3,1.443126611E-2,2.593306785E-1
3.073982509E0,-2.094442546E-1,-1.702736691E-2,8.933641016E-3,2.103250745E-1
3.076490425E0,-1.556897014E-1,-1.458397787E-2,6.490251981E-3,1.565059070E-1
3.078998342E0,-1.025459841E-1,-1.458397787E-2,-8.399150101E-4,1.035812566E-1
3.081506259E0,-4.940227047E-2,-7.864658721E-3,5.268557463E-3,5.030104255E-2
3.084014175E0,1.046075951E-2,-1.756185899E-3,7.101099472E-3,1.276468927E-2
3.086522144E0,7.826480269E-2,-3.588727675E-3,5.879404955E-3,7.856733233E-2
3.089030061E0,1.516428292E-1,-1.030804776E-2,9.544488043E-3,1.522921559E-1
3.091537977E0,2.145601064E-1,-1.580567285E-2,1.259872504E-2,2.155100611E-1
3.094045894E0,2.860292196E-1,-1.763821393E-2,9.544488043E-3,2.867314394E-1
3.096553811E0,3.611634374E-1,-2.008160390E-2,9.926267667E-4,3.617226626E-1
3.099061727E0,4.387410581E-1,-1.580567285E-2,-2.290677221E-4,4.390257257E-1
3.101569696E0,5.175403357E-1,-1.702736691E-2,-1.450762269E-3,5.178223971E-1
3.104077613E0,5.938962698E-1,-1.702736691E-2,-5.115845706E-3,5.941623367E-1
3.106585529E0,6.684195995E-1,-1.702736691E-2,-8.780929260E-3,6.686940982E-1
3.109093446E0,7.417212725E-1,-1.519482583E-2,-8.170082234E-3,7.419218820E-1
3.111601363E0,8.101361990E-1,-1.763821393E-2,-3.283303929E-3,8.103348367E-1
3.114109279E0,8.736643195E-1,-2.008160390E-2,-7.559234742E-3,8.739277751E-1
3.116617248E0,9.292513728E-1,-1.763821393E-2,-8.170082234E-3,9.294546631E-1
3.119125165E0,9.817842841E-1,-2.130329795E-2,-9.391776286E-3,9.820602917E-1
3.121633081E0,1.022711039E0,-2.313583903E-2,-1.183516532E-2,1.023041156E0
3.124140998E0,1.055696726E0,-1.824906096E-2,-1.550024934E-2,1.055968211E0
3.126648915E0,1.079519868E0,-2.191414498E-2,-1.794363745E-2,1.079891360E0
3.129156884E0,1.092958450E0,-1.763821393E-2,-1.916533336E-2,1.093268764E0
3.131664800E0,1.096623540E0,-1.702736691E-2,-1.916533336E-2,1.096923165E0
3.134172717E0,1.087460876E0,-1.397313084E-2,-1.977618039E-2,1.087730436E0
3.136680634E0,1.061194420E0,-7.864658721E-3,-2.283041552E-2,1.061469113E0
3.139188550E0,1.025154471E0,-9.697199799E-3,-2.038702741E-2,1.025403022E0
3.141696467E0,9.756757617E-1,-9.086352773E-3,-2.160872146E-2,9.759573201E-1
3.144204436E0,9.152019024E-1,-6.032116711E-3,-1.916533336E-2,9.154224263E-1
3.146712352E0,8.419002295E-1,-1.756185899E-3,-1.916533336E-2,8.421201758E-1
3.149220269E0,7.679877281E-1,-4.810422193E-3,-1.672194339E-2,7.681848177E-1
3.151728186E0,6.855233312E-1,6.872031372E-4,-1.550024934E-2,6.856988899E-1
3.154236102E0,6.036698222E-1,5.573981442E-3,-1.305686031E-2,6.038367371E-1
3.156744019E0,5.279247165E-1,2.519744914E-3,-1.183516532E-2,5.280633736E-1
3.159251988E0,4.527905285E-1,3.130592173E-3,-9.391776286E-3,4.528987401E-1
3.161759904E0,3.837648034E-1,1.908897655E-3,-9.391776286E-3,3.838844536E-1
3.164267821E0,3.202366829E-1,1.908897655E-3,-6.948387716E-3,3.203177439E-1
3.166775738E0,2.615953386E-1,6.184828468E-3,-3.283303929E-3,2.616890394E-1
3.169283654E0,2.060082406E-1,1.908897655E-3,-3.894151188E-3,2.060538849E-1
3.171791623E0,1.553079188E-1,2.519744914E-3,-1.450762269E-3,1.553351327E-1
3.174299540E0,1.094180122E-1,-5.344913807E-4,9.926267667E-4,1.094238200E-1
3.176807456E0,6.543701142E-2,4.963133950E-3,3.436015919E-3,6.571484891E-2
3.179315373E0,2.695363574E-2,6.872031372E-4,3.436015919E-3,2.718045130E-2
3.181823290E0,-1.214058883E-2,6.184828468E-3,3.436015919E-3,1.405176878E-2
3.184331206E0,-4.695888236E-2,4.963133950E-3,2.825168660E-3,4.730487194E-2
3.186839175E0,-8.422056586E-2,2.519744914E-3,2.825168660E-3,8.430560127E-2
3.189347092E0,-1.227039397E-1,8.017370477E-3,9.926267667E-4,1.229695912E-1
3.191855009E0,-1.593547761E-1,1.290414855E-2,-2.290677221E-4,1.598765593E-1
3.194362925E0,-1.911188364E-1,7.406522986E-3,2.214321401E-3,1.912751145E-1
3.196870842E0,-2.247154415E-1,1.473669056E-2,3.817795368E-4,2.251984579E-1
3.199378759E0,-2.570903301E-1,1.351499557E-2,-2.061609412E-3,2.574535748E-1
3.201886727E0,-2.851893008E-1,1.534753758E-2,1.603474026E-3,2.856064693E-1
3.204394644E0,-3.096232116E-1,1.473669056E-2,5.268557463E-3,3.100184848E-1
3.206902561E0,-3.273377717E-1,1.046075951E-2,5.268557463E-3,3.275472515E-1
3.209410477E0,-3.499391377E-1,8.017370477E-3,3.436015919E-3,3.500478318E-1
3.211918394E0,-3.676536977E-1,1.107160654E-2,1.603474026E-3,3.678238615E-1
3.214426311E0,-3.835357130E-1,1.412584260E-2,9.926267667E-4,3.837970399E-1
3.216934279E0,-3.981960714E-1,2.084516361E-2,-8.399150101E-4,3.987421944E-1
3.219442196E0,-4.134672284E-1,1.656923257E-2,3.817795368E-4,4.137992680E-1
3.221950113E0,-4.232407808E-1,1.595838554E-2,5.268557463E-3,4.235742985E-1
3.224458029E0,-4.360685945E-1,1.962346770E-2,4.657710437E-3,4.365347567E-1
3.226965946E0,-4.446204603E-1,1.595838554E-2,3.817795368E-4,4.449069223E-1
3.229473863E0,-4.574482441E-1,1.840177365E-2,-2.061609412E-3,4.578228604E-1
3.231981831E0,-4.647783935E-1,2.267770469E-2,1.603474026E-3,4.653340784E-1
3.234489748E0,-4.684434831E-1,1.901262067E-2,1.603474026E-3,4.688318971E-1
3.236997665E0,-4.562265575E-1,2.023431472E-2,-1.450762269E-3,4.566773521E-1
3.239505581E0,-4.281275868E-1,1.840177365E-2,2.214321401E-3,4.285285978E-1
3.242013498E0,-3.859791160E-1,2.389939874E-2,8.322793990E-3,3.868078698E-1
3.244521467E0,-3.523825109E-1,1.718007959E-2,1.565296017E-2,3.531481336E-1
3.247029384E0,-3.218401372E-1,1.351499557E-2,7.711946499E-3,3.222160815E-1
3.249537300E0,-2.839676142E-1,1.473669056E-2,-7.559234742E-3,2.844502030E-1
3.252045217E0,-2.454842478E-1,3.741439432E-3,-1.427855436E-2,2.459276142E-1
3.254553134E0,-2.063900232E-1,-4.199574701E-3,2.214321401E-3,2.064446205E-1
3.257061050E0,-1.581330895E-1,-3.588727675E-3,1.565296017E-2,1.589464317E-1
3.259569019E0,-1.037676781E-1,-5.344913807E-4,6.490251981E-3,1.039718235E-1
3.262076936E0,-5.734328553E-2,-4.810422193E-3,2.825168660E-3,5.761400989E-2
3.264584852E0,-9.086352773E-3,1.908897655E-3,-2.290677221E-4,9.287527604E-3
3.267092769E0,3.306210786E-2,1.107160654E-2,2.214321401E-3,3.493689550E-2
3.269600686E0,7.582141459E-2,4.963133950E-3,-2.290677221E-4,7.598402517E-2
3.272108602E0,1.063637808E-1,3.741439432E-3,-2.061609412E-3,1.064495301E-1
3.274616571E0,1.437018216E-1,-1.275143679E-2,2.825168660E-3,1.442941241E-1
3.277124488E0,1.815743446E-1,-1.030804776E-2,1.076618303E-2,1.821850959E-1
3.279632404E0,2.157817930E-1,-2.741177008E-2,9.544488043E-3,2.177252502E-1
3.282140321E0,2.389939874E-1,-1.763821393E-2,3.436015919E-3,2.396686021E-1
3.284648238E0,2.603736520E-1,-1.763821393E-2,-2.672456671E-3,2.609840747E-1
3.287156206E0,2.762556672E-1,-1.030804776E-2,-2.290677221E-4,2.764480096E-1
3.289664123E0,2.848075330E-1,-3.588727675E-3,-2.290677221E-4,2.848302342E-1
3.292172040E0,2.823641598E-1,-5.344913807E-4,-6.948387716E-3,2.824501452E-1
3.294679956E0,2.811424434E-1,-1.214058883E-2,2.825168660E-3,2.814186365E-1
3.297187873E0,2.780882120E-1,1.046075951E-2,2.825168660E-3,2.782992324E-1
3.299695790E0,2.799207568E-1,-2.802261710E-2,1.565296017E-2,2.817550573E-1
3.302203759E0,2.878617644E-1,-3.657447919E-2,2.970244735E-2,2.916921722E-1
3.304711675E0,2.896943092E-1,-1.947075687E-2,-6.948387716E-3,2.904310301E-1
3.307219592E0,2.915268540E-1,-2.496838197E-2,-1.183516532E-2,2.928333961E-1
3.309727509E0,2.854183912E-1,1.840177365E-2,-1.672194339E-2,2.864994009E-1
3.312235425E0,2.829749882E-1,1.046075951E-2,-1.000262424E-2,2.833448851E-1
3.314743342E0,2.738122940E-1,9.239064530E-3,7.101099472E-3,2.740601362E-1
3.317251311E0,2.506000996E-1,-6.032116711E-3,-5.726693198E-3,2.507380931E-1
3.319759227E0,2.444916219E-1,-5.123481527E-2,3.581092134E-2,2.523560610E-1
3.322267144E0,2.652604282E-1,-3.474193811E-2,4.314108938E-2,2.709820116E-1
3.324775061E0,2.732014358E-1,-4.451549426E-2,-1.488940232E-2,2.772045239E-1
3.327282977E0,2.615953386E-1,-4.199574701E-3,-4.543176666E-2,2.655443523E-1
3.329790894E0,2.499892414E-1,8.017370477E-3,-2.832804248E-2,2.517168588E-1
3.332298863E0,2.542651594E-1,2.451024577E-2,5.268557463E-3,2.554981039E-1
3.334806779E0,2.408265322E-1,1.168245357E-2,2.825168660E-3,2.411262738E-1
3.337314696E0,2.316638231E-1,-1.885990985E-2,-2.290677221E-4,2.324303672E-1
3.339822613E0,2.359397560E-1,-3.413109109E-2,1.443126611E-2,2.388320776E-1
3.342330529E0,2.548760176E-1,-3.229855001E-2,2.481566928E-2,2.581100504E-1
3.344838446E0,2.695363462E-1,-2.863346599E-2,5.879404955E-3,2.711167363E-1
3.347346415E0,3.067980409E-1,-1.947075687E-2,-4.504998680E-3,3.074482774E-1
3.349854331E0,3.874298632E-1,-1.030804776E-2,1.504211407E-2,3.878587629E-1
3.352362248E0,4.772244096E-1,-3.474193811E-2,2.481566928E-2,4.791304173E-1
3.354870165E0,5.413633585E-1,-3.535278514E-2,1.137703005E-2,5.426357362E-1
3.357378081E0,6.073349118E-1,-3.413109109E-2,3.436015919E-3,6.083029120E-1
3.359886050E0,6.861341596E-1,-2.741177008E-2,-8.399150101E-4,6.866820192E-1
3.362393967E0,7.502731681E-1,-2.741177008E-2,-1.366770733E-2,7.508981543E-1
3.364901884E0,8.058602214E-1,-3.168770298E-2,-3.077143058E-2,8.070698160E-1
3.367409800E0,8.486195803E-1,-2.313583903E-2,-3.260397166E-2,8.495607559E-1
3.369917717E0,8.657232523E-1,-1.641651988E-2,-2.893888950E-2,8.663623440E-1
3.372425634E0,8.535063267E-1,-1.580567285E-2,-3.260397166E-2,8.542750657E-1
3.374933602E0,8.260182142E-1,-4.199574701E-3,-3.199312463E-2,8.266482243E-1
3.377441519E0,7.808154821E-1,1.908897655E-3,-1.916533336E-2,7.810529886E-1
3.379949436E0,7.142331600E-1,1.908897655E-3,-1.000262424E-2,7.143057491E-1
3.382457352E0,6.281036735E-1,4.963133950E-3,-7.559234742E-3,6.281687666E-1
3.384965269E0,5.358657837E-1,3.130592173E-3,-7.559234742E-3,5.359282422E-1
3.387473186E0,4.271349311E-1,6.184828468E-3,-8.780929260E-3,4.272699453E-1
3.389981154E0,3.086305857E-1,9.849912487E-3,-6.948387716E-3,3.088658921E-1
3.392489071E0,1.870719790E-1,1.351499557E-2,-1.305686031E-2,1.880134624E-1
3.394996988E0,7.765395939E-2,9.239064530E-3,-1.000262424E-2,7.883876086E-2
3.397504904E0,-2.252499200E-2,1.473669056E-2,-6.948387716E-3,2.779973750E-2
3.400012821E0,-1.208714023E-1,2.023431472E-2,-2.061609412E-3,1.225706883E-1
3.402520790E0,-2.051683217E-1,2.023431472E-2,-1.450762269E-3,2.061687960E-1
3.405028706E0,-2.662530541E-1,1.412584260E-2,1.603474026E-3,2.666323300E-1
3.407536623E0,-3.120665848E-1,1.351499557E-2,5.879404955E-3,3.124144297E-1
3.410044540E0,-3.474957347E-1,1.229330152E-2,8.322793990E-3,3.478127079E-1
3.412552456E0,-3.682645559E-1,7.406522986E-3,8.933641016E-3,3.684473499E-1
3.415060373E0,-3.713187873E-1,6.184828468E-3,8.933641016E-3,3.714777300E-1
3.417568342E0,-3.664320111E-1,1.107160654E-2,9.544488043E-3,3.667234605E-1
3.420076259E0,-3.505499661E-1,6.795675959E-3,9.544488043E-3,3.507457159E-1
3.422584175E0,-3.273377717E-1,6.184828468E-3,4.046862945E-3,3.274212057E-1
3.425092092E0,-2.943520248E-1,4.963133950E-3,4.046862945E-3,2.944216777E-1
3.427600009E0,-2.601445615E-1,-1.145338640E-3,5.268557463E-3,2.602004273E-1
3.430107925E0,-2.247154415E-1,-4.810422193E-3,6.490251981E-3,2.248606083E-1
3.432615894E0,-1.905079931E-1,-2.977880416E-3,8.933641016E-3,1.907405912E-1
3.435123811E0,-1.532463133E-1,-3.588727675E-3,8.933641016E-3,1.535484336E-1
3.437631727E0,-1.159846261E-1,-2.977880416E-3,8.933641016E-3,1.163662804E-1
3.440139644E0,-7.627955079E-2,-1.145338640E-3,7.711946499E-3,7.667695735E-2
3.442647561E0,-3.840702027E-2,-6.032116711E-3,8.933641016E-3,3.989104636E-2
3.445155529E0,7.635590737E-5,-5.421269219E-3,9.544488043E-3,1.097694138E-2
3.447663446E0,4.039227590E-2,-4.810422193E-3,8.322793990E-3,4.152041683E-2
3.450171363E0,7.826480269E-2,-6.642963737E-3,7.101099472E-3,7.886655769E-2
3.452679279E0,1.168245375E-1,-5.421269219E-3,5.879404955E-3,1.170979510E-1
3.455187196E0,1.571404636E-1,-7.864658721E-3,7.101099472E-3,1.574973135E-1
3.457695165E0,1.944021434E-1,-7.253811229E-3,3.436015919E-3,1.945677705E-1
3.460203081E0,2.334963679E-1,-4.810422193E-3,4.046862945E-3,2.335809733E-1
3.462710998E0,2.664821148E-1,-1.145338640E-3,2.214321401E-3,2.664937758E-1
3.465218915E0,3.006895781E-1,-3.588727675E-3,9.926267667E-4,3.007126313E-1
3.467726831E0,3.312319219E-1,-5.344913807E-4,-2.061609412E-3,3.312387689E-1
3.470234748E0,3.574983478E-1,-3.588727675E-3,-1.450762269E-3,3.575193034E-1
3.472742717E0,3.825430870E-1,-4.810422193E-3,-2.061609412E-3,3.825788857E-1
3.475250634E0,4.051444530E-1,-4.199574701E-3,-2.672456671E-3,4.051750317E-1
3.477758550E0,4.185830951E-1,-2.367033157E-3,-2.061609412E-3,4.185948645E-1
3.480266467E0,4.253024161E-1,-2.977880416E-3,-3.894151188E-3,4.253306682E-1
3.482774384E0,4.271349311E-1,-2.367033157E-3,-7.559234742E-3,4.272083733E-1
3.485282300E0,4.149180055E-1,7.635590737E-5,-8.170082234E-3,4.149984426E-1
3.487790269E0,3.825430870E-1,1.908897655E-3,-1.305686031E-2,3.827706087E-1
3.490298186E0,3.428380191E-1,2.519744914E-3,-1.427855436E-2,3.431444792E-1
3.492806102E0,2.927485406E-1,7.406522986E-3,-1.977618039E-2,2.935092195E-1
3.495314019E0,2.273878902E-1,1.595838554E-2,-1.916533336E-2,2.287514649E-1
3.497821936E0,1.565296054E-1,1.840177365E-2,-1.672194339E-2,1.584921639E-1
3.500329904E0,9.475768358E-2,1.779092662E-2,-1.061347127E-2,9.699578052E-2
3.502837821E0,2.512109280E-2,2.145601064E-2,-8.170082234E-3,3.403204284E-2
3.505345738E0,-4.634803534E-2,2.084516361E-2,-4.504998680E-3,5.101917521E-2
3.507853654E0,-1.129303873E-1,1.779092662E-2,3.817795368E-4,1.143238173E-1
3.510361571E0,-1.740151197E-1,1.412584260E-2,-2.672456671E-3,1.746079704E-1
3.512869488E0,-2.344889939E-1,8.628217503E-3,-3.283303929E-3,2.346706511E-1
3.515377404E0,-2.943520248E-1,1.534753758E-2,1.603474026E-3,2.947562256E-1
3.517885373E0,-3.474957347E-1,1.534753758E-2,2.825168660E-3,3.478459632E-1
3.520393290E0,-3.969743550E-1,1.473669056E-2,6.490251981E-3,3.973008079E-1
3.522901206E0,-4.440096021E-1,1.473669056E-2,3.436015919E-3,4.442673778E-1
3.525409123E0,-4.910448492E-1,1.107160654E-2,4.657710437E-3,4.911917331E-1
3.527917040E0,-5.295282006E-1,1.908897655E-3,1.748550311E-2,5.298202544E-1
3.530425009E0,-5.484644771E-1,3.130592173E-3,1.198787708E-2,5.486044043E-1
3.532932925E0,-5.741200447E-1,3.741439432E-3,-7.559234742E-3,5.741819974E-1
3.535440842E0,-5.979431272E-1,1.908897655E-3,3.436015919E-3,5.979560464E-1
3.537948759E0,-6.290963292E-1,2.084516361E-2,6.490251981E-3,6.294750477E-1
3.540456675E0,-6.559736133E-1,1.595838554E-2,1.603474026E-3,6.561696598E-1
3.542964592E0,-6.816291809E-1,1.290414855E-2,4.046862945E-3,6.817633273E-1
3.545472561E0,-7.127823830E-1,5.573981442E-3,1.259872504E-2,7.129155087E-1
3.547980477E0,-7.408813834E-1,9.849912487E-3,1.687465608E-2,7.411389877E-1
3.550488394E0,-7.720345855E-1,4.963133950E-3,4.046862945E-3,7.720611446E-1
3.552996311E0,-8.007444143E-1,1.908897655E-3,1.565296017E-2,8.008996667E-1
3.555504227E0,-7.799755931E-1,4.963133950E-3,4.008685052E-2,7.810208154E-1
3.558012196E0,-7.512657642E-1,-6.642963737E-3,5.879404955E-3,7.513181383E-1
3.560520113E0,-7.170583010E-1,1.908897655E-3,9.926267667E-4,7.170615289E-1
3.563028029E0,-6.846834421E-1,9.849912487E-3,1.382041909E-2,6.848937441E-1
3.565535946E0,-6.425349712E-1,7.406522986E-3,5.268557463E-3,6.425992558E-1
3.568043863E0,-5.924454927E-1,7.406522986E-3,9.926267667E-4,5.924926192E-1
3.570551779E0,-5.435777307E-1,6.795675959E-3,-8.399150101E-4,5.436208568E-1
3.573059748E0,-5.008183718E-1,-5.344913807E-4,1.259872504E-2,5.009771003E-1
3.575567665E0,-4.635567069E-1,7.406522986E-3,7.711946499E-3,4.636800095E-1
3.578075581E0,-4.330143631E-1,1.473669056E-2,-1.244601328E-2,4.334437817E-1
3.580583498E0,-4.146889448E-1,4.352286924E-3,2.825168660E-3,4.147214064E-1
3.583091415E0,-3.792597950E-1,4.963133950E-3,4.191939160E-2,3.816017036E-1
3.585599331E0,-3.322245479E-1,1.908897655E-3,1.809635013E-2,3.327225150E-1
3.588107300E0,-2.980171144E-1,-9.086352773E-3,-1.488940232E-2,2.985271455E-1
3.590615217E0,-2.668638825E-1,-8.475505747E-3,6.490251981E-3,2.670773097E-1
3.593123134E0,-2.412083149E-1,3.130592173E-3,6.490251981E-3,2.413159240E-1
3.595631050E0,-2.161635756E-1,5.573981442E-3,-1.366770733E-2,2.166669493E-1
3.598138967E0,-2.002815455E-1,-1.756185899E-3,-8.780929260E-3,2.004816360E-1
3.600646936E0,-1.801235825E-1,-1.756185899E-3,2.176143415E-2,1.814418617E-1
3.603154852E0,-1.624090075E-1,-9.697199799E-3,1.931804419E-2,1.638411067E-1
3.605662769E0,-1.532463133E-1,-1.152974181E-2,-6.337540224E-3,1.538100514E-1
3.608170686E0,-1.398076713E-1,-1.458397787E-2,-3.283303929E-3,1.406046139E-1
3.610678602E0,-1.239256412E-1,-7.253811229E-3,1.076618303E-2,1.246037440E-1
3.613186519E0,-1.080436110E-1,-9.086352773E-3,5.268557463E-3,1.085529428E-1
3.615694488E0,-9.277242422E-2,-1.030804776E-2,5.879404955E-3,9.352831628E-2
3.618202404E0,-6.772769243E-2,-9.086352773E-3,1.870719716E-2,7.084886275E-2
3.620710321E0,-3.413109109E-2,-1.519482583E-2,2.115058713E-2,4.293205617E-2
3.623218238E0,6.872031372E-4,-1.885990985E-2,4.046862945E-3,1.930143900E-2
3.625726154E0,3.611634299E-2,-1.885990985E-2,3.817795368E-4,4.074594687E-2
3.628234123E0,7.398887724E-2,-2.008160390E-2,9.926267667E-4,7.667209452E-2
3.630742040E0,9.597937763E-2,-1.885990985E-2,-7.559234742E-3,9.810646849E-2
3.633249956E0,9.903360903E-2,-1.336228382E-2,-1.366770733E-2,1.008613532E-1
3.635757873E0,9.048175067E-2,-1.275143679E-2,-9.391776286E-3,9.185723600E-2
3.638265790E0,6.849125028E-2,-9.086352773E-3,-7.559234742E-3,6.950363444E-2
3.640773759E0,2.939702384E-2,-9.086352773E-3,-1.061347127E-2,3.254831163E-2
3.643281675E0,-2.496838197E-2,-1.145338640E-3,-1.305686031E-2,2.819953014E-2
3.645789592E0,-9.155073017E-2,-2.977880416E-3,-6.948387716E-3,9.186231032E-2
3.648297509E0,-1.685174853E-1,6.184828468E-3,-3.894151188E-3,1.686759003E-1
3.650805425E0,-2.528144121E-1,1.229330152E-2,-5.115845706E-3,2.531648161E-1
3.653313342E0,-3.413872719E-1,1.229330152E-2,1.603474026E-3,3.416123033E-1
3.655821311E0,-4.311818182E-1,1.473669056E-2,3.436015919E-3,4.314472582E-1
3.658329227E0,-5.215871930E-1,1.962346770E-2,4.657710437E-3,5.219769867E-1
3.660837144E0,-5.967214108E-1,1.351499557E-2,2.825168660E-3,5.968811261E-1
3.663345061E0,-6.633037925E-1,1.229330152E-2,1.603474026E-3,6.634196391E-1
3.665852977E0,-7.127823830E-1,1.351499557E-2,1.603474026E-3,7.129123030E-1
3.668360894E0,-7.469898462E-1,1.229330152E-2,4.657710437E-3,7.471055146E-1
3.670868863E0,-7.659261227E-1,1.107160654E-2,2.214321401E-3,7.660093401E-1
3.673376779E0,-7.677586675E-1,1.107160654E-2,3.436015919E-3,7.678461813E-1
3.675884696E0,-7.512657642E-1,6.795675959E-3,5.879404955E-3,7.513195040E-1
3.678392613E0,-7.176691890E-1,5.573981442E-3,7.101099472E-3,7.177259642E-1
3.680900529E0,-6.651363373E-1,1.298050396E-3,7.101099472E-3,6.651755090E-1
3.683408446E0,-6.022190452E-1,-1.756185899E-3,7.101099472E-3,6.022634707E-1
3.685916415E0,-5.325824618E-1,-4.199574701E-3,8.322793990E-3,5.326640442E-1
3.688424331E0,-4.568373859E-1,-3.588727675E-3,6.490251981E-3,4.568975810E-1
3.690932248E0,-3.847574294E-1,-1.145338640E-3,4.046862945E-3,3.847804158E-1
3.693440165E0,-3.126774430E-1,-2.977880416E-3,3.436015919E-3,3.127105009E-1
3.695948081E0,-2.460950911E-1,-6.642963737E-3,2.825168660E-3,2.462009432E-1
3.698455998E0,-1.862320602E-1,-1.030804776E-2,9.926267667E-4,1.865197614E-1
3.700963967E0,-1.294232607E-1,-1.152974181E-2,4.046862945E-3,1.299988171E-1
3.703471884E0,-8.238802105E-2,-1.275143679E-2,5.268557463E-3,8.353527908E-2
3.705979800E0,-4.268295318E-2,-1.458397787E-2,4.046862945E-3,4.528690763E-2
3.708487717E0,-1.519482583E-2,-1.152974181E-2,5.268557463E-3,1.978826359E-2
3.710995634E0,8.017370477E-3,-1.091889478E-2,7.711946499E-3,1.558764291E-2
3.713503602E0,2.695363574E-2,-1.030804776E-2,8.933641016E-3,3.020867872E-2
3.716011519E0,4.283566400E-2,-1.275143679E-2,8.933641016E-3,4.557744171E-2
3.718519436E0,5.688514933E-2,-1.091889478E-2,8.322793990E-3,5.851847039E-2
3.721027352E0,7.093463838E-2,-1.030804776E-2,8.322793990E-3,7.216126156E-2
3.723535269E0,8.987089992E-2,-6.032116711E-3,1.076618303E-2,9.071425346E-2
3.726043238E0,1.119377613E-1,-9.086352773E-3,7.101099472E-3,1.125302174E-1
3.728551154E0,1.388150454E-1,-1.152974181E-2,1.603474026E-3,1.393022717E-1
3.731059071E0,1.656923145E-1,-9.086352773E-3,4.046862945E-3,1.659906081E-1
3.733566988E0,1.968455315E-1,-9.697199799E-3,3.436015919E-3,1.971141932E-1
3.736074904E0,2.286095917E-1,-1.336228382E-2,-2.290677221E-4,2.289998876E-1
3.738582821E0,2.591519356E-1,-1.275143679E-2,-2.061609412E-3,2.594736501E-1
3.741090790E0,2.860292196E-1,-9.697199799E-3,3.817795368E-4,2.861938083E-1
3.743598706E0,3.067980409E-1,-1.030804776E-2,-2.061609412E-3,3.069780838E-1
3.746106623E0,3.269560039E-1,-1.091889478E-2,-1.450762269E-3,3.271414915E-1
3.748614540E0,3.403946459E-1,-2.977880416E-3,-1.450762269E-3,3.404107628E-1
3.751122456E0,3.550549746E-1,-4.810422193E-3,9.926267667E-4,3.550889472E-1
3.753630425E0,3.727695346E-1,-6.032116711E-3,4.046862945E-3,3.728403002E-1
3.756138342E0,3.941491842E-1,-7.864658721E-3,-5.115845706E-3,3.942608326E-1
3.758646259E0,4.094203711E-1,-4.810422193E-3,-2.672456671E-3,4.094573512E-1
3.761154175E0,4.112529159E-1,-4.199574701E-3,-3.283303929E-3,4.112874631E-1
3.763662092E0,4.143071473E-1,-2.367033157E-3,-2.672456671E-3,4.143225279E-1
3.766170009E0,4.155288339E-1,-3.588727675E-3,-1.450762269E-3,4.155468631E-1
3.768677977E0,4.143071473E-1,-8.475505747E-3,-3.283303929E-3,4.144068370E-1
3.771185894E0,4.136963189E-1,-5.344913807E-4,-2.061609412E-3,4.137018010E-1
3.773693811E0,4.179722369E-1,-4.810422193E-3,-8.399150101E-4,4.180007613E-1
3.776201727E0,4.191939235E-1,-4.810422193E-3,-3.283303929E-3,4.192343804E-1
3.778709644E0,4.222481549E-1,-2.367033157E-3,-3.283303929E-3,4.222675541E-1
3.781217613E0,4.228590131E-1,-4.199574701E-3,-2.672456671E-3,4.228883108E-1
3.783725529E0,4.246915579E-1,-6.032116711E-3,-8.399150101E-4,4.247352248E-1
3.786233446E0,4.253024161E-1,-7.864658721E-3,-3.894151188E-3,4.253929506E-1
3.788741363E0,4.271349311E-1,-6.032116711E-3,-2.061609412E-3,4.271824973E-1
3.791249279E0,4.246915579E-1,-3.588727675E-3,-8.399150101E-4,4.247075509E-1
3.793757196E0,4.253024161E-1,-5.421269219E-3,-4.504998680E-3,4.253608237E-1
3.796265165E0,4.246915579E-1,-4.199574701E-3,-2.061609412E-3,4.247173248E-1
3.798773081E0,4.228590131E-1,-4.810422193E-3,-2.061609412E-3,4.228913990E-1
3.801280998E0,4.185830951E-1,-6.642963737E-3,-3.894151188E-3,4.186539154E-1
3.803788915E0,4.191939235E-1,-9.697199799E-3,-2.672456671E-3,4.193145874E-1
3.806296831E0,4.149180055E-1,-3.588727675E-3,3.817795368E-4,4.149337007E-1
3.808804748E0,4.179722369E-1,-7.864658721E-3,-2.061609412E-3,4.180513053E-1
3.811312717E0,4.222481549E-1,-7.253811229E-3,-1.450762269E-3,4.223129489E-1
3.813820634E0,4.350759685E-1,-6.032116711E-3,-2.672456671E-3,4.351259896E-1
3.816328550E0,4.509579837E-1,-8.475505747E-3,-1.450762269E-3,4.510399561E-1
3.818836467E0,4.692834020E-1,-1.214058883E-2,-3.283303929E-3,4.694518989E-1
3.821344384E0,4.882196784E-1,-1.030804776E-2,-3.894151188E-3,4.883440126E-1
3.823852352E0,5.065450668E-1,-9.086352773E-3,-4.504998680E-3,5.066465845E-1
3.826360269E0,5.297572613E-1,-1.030804776E-2,-5.115845706E-3,5.298822356E-1
3.828868186E0,5.468609929E-1,-1.152974181E-2,-5.115845706E-3,5.470064464E-1
3.831376102E0,5.602996349E-1,-7.253811229E-3,-5.115845706E-3,5.603699408E-1
3.833884019E0,5.737382770E-1,-1.152974181E-2,-4.504998680E-3,5.738717979E-1
3.836391936E0,5.859552622E-1,-1.458397787E-2,-1.450762269E-3,5.861385215E-1
3.838899904E0,5.938962698E-1,-6.032116711E-3,-3.894151188E-3,5.939396688E-1
3.841407821E0,6.012263894E-1,-7.864658721E-3,-4.504998680E-3,6.012947024E-1
3.843915738E0,6.073349118E-1,-1.030804776E-2,-2.061609412E-3,6.074258812E-1
3.846423654E0,6.140542030E-1,-4.810422193E-3,-2.672456671E-3,6.140788601E-1
3.848931571E0,6.232169271E-1,-9.697199799E-3,-2.061609412E-3,6.232957758E-1
3.851439488E0,6.336013079E-1,-1.091889478E-2,-3.894151188E-3,6.337073489E-1
3.853947456E0,6.452074051E-1,-1.756185899E-3,-5.115845706E-3,6.452300765E-1
3.856455373E0,6.604785919E-1,-8.475505747E-3,-4.504998680E-3,6.605483325E-1
3.858963290E0,6.757497787E-1,-7.864658721E-3,-8.170082234E-3,6.758449279E-1
3.861471206E0,6.916317940E-1,-9.086352773E-3,-7.559234742E-3,6.917327824E-1
3.863979123E0,7.075138092E-1,-1.091889478E-2,-7.559234742E-3,7.076384349E-1
3.866487092E0,7.246175408E-1,-6.032116711E-3,-4.504998680E-3,7.246566511E-1
3.868995009E0,7.386670709E-1,-7.253811229E-3,-5.115845706E-3,7.387204013E-1
3.871502925E0,7.533273697E-1,-9.086352773E-3,-7.559234742E-3,7.534200885E-1
3.874010842E0,7.661551833E-1,-6.032116711E-3,-5.726693198E-3,7.662003304E-1
3.876518759E0,7.808154821E-1,-7.253811229E-3,-7.559234742E-3,7.808857643E-1
3.879026727E0,7.911999226E-1,-8.475505747E-3,-7.559234742E-3,7.912814251E-1
3.881534644E0,8.034168482E-1,-7.253811229E-3,-8.170082234E-3,8.034911325E-1
3.884042561E0,8.083036542E-1,-7.253811229E-3,-7.559234742E-3,8.083715465E-1
3.886550477E0,8.083036542E-1,-8.475505747E-3,-8.170082234E-3,8.083893751E-1
3.889058394E0,8.009734750E-1,-4.199574701E-3,-8.170082234E-3,8.010261508E-1
3.891566311E0,7.820371985E-1,1.908897655E-3,-8.170082234E-3,7.820822041E-1
3.894074279E0,7.600467205E-1,-2.367033157E-3,-6.337540224E-3,7.600768281E-1
3.896582196E0,7.350019813E-1,7.635590737E-5,-6.337540224E-3,7.350293074E-1
3.899090113E0,7.062921524E-1,5.573981442E-3,-4.504998680E-3,7.063285134E-1
3.901598029E0,6.757497787E-1,6.872031372E-4,-5.726693198E-3,6.757743934E-1
3.904105946E0,6.452074051E-1,2.519744914E-3,-5.115845706E-3,6.452326066E-1
3.906613915E0,6.164975762E-1,2.519744914E-3,-5.115845706E-3,6.165239513E-1
3.909121831E0,5.865660906E-1,1.298050396E-3,-5.726693198E-3,5.865954812E-1
3.911629748E0,5.602996349E-1,2.519744914E-3,-5.726693198E-3,5.603345653E-1
3.914137665E0,5.352548957E-1,1.298050396E-3,-2.672456671E-3,5.352631412E-1
3.916645581E0,5.071559548E-1,-1.145338640E-3,-3.283303929E-3,5.071678760E-1
3.919153498E0,4.808894992E-1,-1.756185899E-3,-3.283303929E-3,4.809039142E-1
3.921661467E0,4.503471553E-1,7.635590737E-5,-5.115845706E-3,4.503762183E-1
3.924169384E0,4.167505503E-1,6.872031372E-4,-6.337540224E-3,4.167993016E-1
3.926677300E0,3.733803928E-1,-1.145338640E-3,-6.948387716E-3,3.734467962E-1
3.929185217E0,3.214583695E-1,4.352286924E-3,-7.559234742E-3,3.215766903E-1
3.931693134E0,2.713688910E-1,-1.145338640E-3,-8.780929260E-3,2.715133358E-1
3.934201050E0,2.218902707E-1,1.908897655E-3,-8.170082234E-3,2.220488378E-1
3.936709019E0,1.675248593E-1,1.908897655E-3,-4.504998680E-3,1.675962929E-1
3.939216936E0,1.217113137E-1,6.795675959E-3,-4.504998680E-3,1.219840978E-1
3.941724852E0,8.864920586E-2,-5.344913807E-4,3.817795368E-4,8.865163922E-2
3.944232769E0,5.932854116E-2,1.908897655E-3,4.657710437E-3,5.954169928E-2
3.946740686E0,2.206685767E-2,2.519744914E-3,-2.061609412E-3,2.230572920E-2
3.949248654E0,-1.214058883E-2,-1.756185899E-3,-8.170082234E-3,1.473866785E-2
3.951756571E0,-4.512634128E-2,2.519744914E-3,-6.948387716E-3,4.572762714E-2
3.954264488E0,-8.544225991E-2,7.406522986E-3,-1.000262424E-2,8.634401457E-2
3.956772404E0,-1.343100369E-1,6.795675959E-3,-3.894151188E-3,1.345382163E-1
3.959280321E0,-1.807344258E-1,9.849912487E-3,-5.726693198E-3,1.810932038E-1
3.961788238E0,-2.289913595E-1,9.239064530E-3,-3.894151188E-3,2.292107490E-1
3.964296206E0,-2.778591514E-1,7.406522986E-3,-2.672456671E-3,2.779706938E-1
3.966804123E0,-3.340570927E-1,3.130592173E-3,-8.399150101E-4,3.340728173E-1
3.969312040E0,-3.798706532E-1,6.184828468E-3,2.825168660E-3,3.799315028E-1
3.971819956E0,-4.171323180E-1,4.963133950E-3,7.101099472E-3,4.172222777E-1
3.974327873E0,-4.543940127E-1,9.239064530E-3,6.490251981E-3,4.545342698E-1
3.976835842E0,-4.879906178E-1,1.046075951E-2,8.933641016E-3,4.881844738E-1
3.979343759E0,-5.173112750E-1,1.046075951E-2,4.046862945E-3,5.174328554E-1
3.981851675E0,-5.234197378E-1,5.573981442E-3,7.711946499E-3,5.235062228E-1
3.984359592E0,-5.093702674E-1,2.519744914E-3,8.933641016E-3,5.094548345E-1
3.986867509E0,-4.757736623E-1,-7.864658721E-3,1.931804419E-2,4.762306347E-1
3.989375477E0,-4.098021686E-1,-7.864658721E-3,2.115058713E-2,4.104229740E-1
3.991883394E0,-3.529933691E-1,-1.580567285E-2,2.825168660E-3,3.533583443E-1
3.994391311E0,-3.004604876E-1,-1.336228382E-2,1.603474026E-3,3.007617435E-1
3.996899227E0,-2.436517030E-1,-5.421269219E-3,2.214321401E-3,2.437220666E-1
3.999407144E0,-1.953947693E-1,-2.977880416E-3,4.657710437E-3,1.954729595E-1
4.001915061E0,-1.550788432E-1,-1.756185899E-3,2.825168660E-3,1.551145170E-1
4.004423029E0,-1.330883503E-1,-8.475505747E-3,1.198787708E-2,1.338956772E-1
4.006930946E0,-1.318666488E-1,-1.214058883E-2,8.322793990E-3,1.326856279E-1
4.009438863E0,-1.569113880E-1,-7.253811229E-3,9.926267667E-4,1.570821020E-1
4.011946779E0,-1.929513812E-1,-7.864658721E-3,-2.672456671E-3,1.931300867E-1
4.014454696E0,-2.259371281E-1,-1.336228382E-2,4.046862945E-3,2.263680931E-1
4.016962665E0,-2.607554197E-1,-7.253811229E-3,1.320957206E-2,2.611905425E-1
4.019470581E0,-2.888543904E-1,-5.344913807E-4,1.687465608E-2,2.893473666E-1
4.021978498E0,-3.120665848E-1,-3.588727675E-3,8.933641016E-3,3.122150577E-1
4.024486415E0,-3.120665848E-1,1.298050396E-3,1.443126611E-2,3.124027845E-1
4.026994331E0,-2.986279428E-1,4.352286924E-3,1.015533600E-2,2.988322631E-1
4.029502300E0,-2.827459276E-1,6.184828468E-3,-8.399150101E-4,2.828148106E-1
4.032010217E0,-2.705289721E-1,3.130592173E-3,-9.391776286E-3,2.707100494E-1
4.034518134E0,-2.436517030E-1,4.352286924E-3,-1.450762269E-3,2.436948902E-1
4.037026050E0,-2.167744190E-1,-1.756185899E-3,7.101099472E-3,2.168978066E-1
4.039533967E0,-2.002815455E-1,-2.977880416E-3,1.603474026E-3,2.003101005E-1
4.042041884E0,-1.874537468E-1,1.298050396E-3,5.268557463E-3,1.875322634E-1
4.044549852E0,-1.544679999E-1,-8.475505747E-3,1.198787708E-2,1.551641273E-1
4.047057769E0,-1.202605516E-1,-1.091889478E-2,1.015533600E-2,1.211814894E-1
4.049565686E0,-7.627955079E-2,-1.152974181E-2,1.687465608E-2,7.896998691E-2
4.052073602E0,-3.779617324E-2,-2.191414498E-2,9.544488043E-3,4.471999233E-2
4.054581519E0,-6.032116711E-3,-1.275143679E-2,7.711946499E-3,1.607668159E-2
4.057089436E0,1.473669056E-2,-1.030804776E-2,3.436015919E-3,1.830934468E-2
4.059597404E0,2.451024577E-2,-1.152974181E-2,-4.504998680E-3,2.745873462E-2
4.062105321E0,2.695363574E-2,-6.032116711E-3,3.817795368E-4,2.762300974E-2
4.064613238E0,3.550549597E-2,-7.253811229E-3,7.101099472E-3,3.692808734E-2
4.067121154E0,4.772244394E-2,-1.885990985E-2,-2.290677221E-4,5.131452355E-2
4.069629071E0,4.588989913E-2,-2.069245093E-2,3.817795368E-4,5.034089911E-2
4.072137040E0,3.550549597E-2,-1.458397787E-2,2.214321401E-3,3.844783315E-2
4.074644956E0,4.588989913E-2,-1.580567285E-2,2.825168660E-3,4.861773046E-2
4.077152873E0,7.948649675E-2,-1.641651988E-2,3.436015919E-3,8.123676197E-2
4.079660790E0,1.119377613E-1,-9.697199799E-3,2.214321401E-3,1.123788295E-1
4.082168706E0,1.443126649E-1,-1.152974181E-2,4.657710437E-3,1.448474178E-1
4.084676623E0,1.766875684E-1,-9.086352773E-3,3.436015919E-3,1.769544146E-1
4.087184592E0,2.102841735E-1,-1.763821393E-2,-3.283303929E-3,2.110481469E-1
4.089692509E0,2.316638231E-1,-1.152974181E-2,-8.780929260E-3,2.321167090E-1
4.092200425E0,2.347180545E-1,-9.086352773E-3,-1.855448633E-2,2.356255417E-1
4.094708342E0,2.200577259E-1,-6.032116711E-3,-2.344126441E-2,2.213849183E-1
4.097216259E0,1.864611208E-1,-2.367033157E-3,-2.771719359E-2,1.885247868E-1
4.099724227E0,1.375933439E-1,7.406522986E-3,-2.466295846E-2,1.399823074E-1
4.102232144E0,8.376242965E-2,1.168245357E-2,-1.916533336E-2,8.671755500E-2
4.104740061E0,3.000787087E-2,1.351499557E-2,-1.366770733E-2,3.563612834E-2
4.107247977E0,-1.885990985E-2,1.290414855E-2,-5.115845706E-3,2.341762427E-2
4.109755894E0,-5.978667364E-2,2.206685767E-2,3.817795368E-4,6.373019933E-2
4.112263863E0,-9.032903612E-2,2.084516361E-2,5.879404955E-3,9.288930517E-2
4.114771779E0,-1.013242900E-1,1.840177365E-2,8.322793990E-3,1.033175006E-1
4.117279696E0,-9.827005118E-2,8.017370477E-3,1.015533600E-2,9.911817209E-2
4.119787613E0,-8.422056586E-2,6.795675959E-3,5.879404955E-3,8.469859696E-2
4.122295529E0,-6.100837141E-2,-2.977880416E-3,4.046862945E-3,6.121491856E-2
