"Time (s)","Gyroscope x (rad/s)","Gyroscope y (rad/s)","Gyroscope z (rad/s)","Absolute (rad/s)"
1.168753680E-1,-2.120403498E-1,4.275931045E-3,-6.337540224E-3,2.121781279E-1
1.194357850E-1,-2.181488276E-1,6.108472589E-3,-7.559234742E-3,2.183652134E-1
1.219960970E-1,-2.205922157E-1,6.719320081E-3,-5.115845706E-3,2.207538148E-1
1.245563060E-1,-2.230356038E-1,3.665083554E-3,-3.283303929E-3,2.230898776E-1
1.271164100E-1,-2.291440815E-1,3.054236295E-3,1.603474026E-3,2.291700451E-1
1.296764620E-1,-2.334200144E-1,7.941014133E-3,1.603474026E-3,2.335605573E-1
1.322364620E-1,-2.383067906E-1,3.054236295E-3,8.322793990E-3,2.384716413E-1
1.347964100E-1,-2.425827235E-1,4.275931045E-3,8.933641016E-3,2.427848250E-1
1.373563060E-1,-2.511345744E-1,6.719320081E-3,6.490251981E-3,2.513082711E-1
1.399161490E-1,-2.572430372E-1,4.275931045E-3,5.268557463E-3,2.573325115E-1
1.424556810E-1,-2.639623582E-1,7.330167107E-3,4.657710437E-3,2.641051915E-1
1.449635450E-1,-2.700708508E-1,8.551862091E-3,2.825168660E-3,2.702209844E-1
1.474715140E-1,-2.755684555E-1,6.108472589E-3,3.817795368E-4,2.756364142E-1
1.499794310E-1,-2.828986347E-1,1.099525020E-2,-1.450762269E-3,2.831159440E-1
1.524873470E-1,-2.896179557E-1,7.941014133E-3,-3.283303929E-3,2.897454056E-1
1.549953160E-1,-2.945047319E-1,4.275931045E-3,-2.061609412E-3,2.945429866E-1
1.575032330E-1,-2.969481349E-1,7.941014133E-3,3.817795368E-4,2.970545409E-1
1.600111490E-1,-3.030565977E-1,4.275931045E-3,-2.061609412E-3,3.030937730E-1
1.625191180E-1,-3.036674559E-1,6.719320081E-3,1.603474026E-3,3.037460192E-1
1.650270350E-1,-3.061108291E-1,7.941014133E-3,3.436015919E-3,3.062330903E-1
1.675349510E-1,-3.079433739E-1,4.275931045E-3,5.879404955E-3,3.080291748E-1
1.700428680E-1,-3.109976053E-1,8.551862091E-3,6.490251981E-3,3.111828534E-1
1.725508370E-1,-3.140518367E-1,3.054236295E-3,4.657710437E-3,3.141012238E-1
1.750587530E-1,-3.171060979E-1,1.099525020E-2,4.046862945E-3,3.173224700E-1
1.775666700E-1,-3.183277845E-1,1.221694518E-3,2.214321401E-3,3.183378302E-1
1.800746390E-1,-3.238253891E-1,7.330167107E-3,2.825168660E-3,3.239206625E-1
1.825825560E-1,-3.268796504E-1,1.099525020E-2,2.214321401E-3,3.270720174E-1
1.850904720E-1,-3.293230236E-1,3.665083554E-3,4.046862945E-3,3.293682799E-1
1.875984410E-1,-3.305447102E-1,8.551862091E-3,3.817795368E-4,3.306555391E-1
1.901063580E-1,-3.360423446E-1,7.330167107E-3,3.817795368E-4,3.361224992E-1
1.926142740E-1,-3.354314864E-1,7.941014133E-3,-8.399150101E-4,3.355265224E-1
1.951222430E-1,-3.348206580E-1,8.551862091E-3,3.817795368E-4,3.349300720E-1
1.976301600E-1,-3.378748894E-1,8.551862091E-3,9.926267667E-4,3.379845566E-1
2.001380760E-1,-3.366532028E-1,4.275931045E-3,4.046862945E-3,3.367046772E-1
2.026460450E-1,-3.378748894E-1,8.551862091E-3,4.657710437E-3,3.380151912E-1
2.051539620E-1,-3.378748894E-1,8.551862091E-3,3.436015919E-3,3.380005642E-1
2.076618780E-1,-3.384857476E-1,5.497625098E-3,4.657710437E-3,3.385624307E-1
2.101698470E-1,-3.397074342E-1,9.773556143E-3,3.436015919E-3,3.398653696E-1
2.126777640E-1,-3.403182924E-1,1.832541777E-3,3.436015919E-3,3.403405714E-1
2.151856810E-1,-3.415399790E-1,3.054236295E-3,3.817795368E-4,3.415538484E-1
2.176936490E-1,-3.439833522E-1,6.108472589E-3,3.436015919E-3,3.440547431E-1
2.202015660E-1,-3.482593000E-1,1.038440317E-2,2.825168660E-3,3.484255407E-1
2.227094830E-1,-3.464267552E-1,6.108472589E-3,9.926267667E-4,3.464820276E-1
2.252173990E-1,-3.507026732E-1,8.551862091E-3,3.436015919E-3,3.508237528E-1
2.277253680E-1,-3.519243896E-1,5.497625098E-3,2.825168660E-3,3.519786662E-1
2.302332850E-1,-3.537569046E-1,7.941014133E-3,9.926267667E-4,3.538474142E-1
2.327412010E-1,-3.568111658E-1,7.330167107E-3,2.214321401E-3,3.568933211E-1
2.352491700E-1,-3.604762256E-1,7.941014133E-3,2.214321401E-3,3.605704815E-1
2.377570870E-1,-3.647521734E-1,6.108472589E-3,4.657710437E-3,3.648330518E-1
2.402650030E-1,-3.726931810E-1,8.551862091E-3,3.436015919E-3,3.728071187E-1
2.427729720E-1,-3.806341887E-1,9.162709117E-3,1.603474026E-3,3.807478325E-1
2.452808890E-1,-3.861318231E-1,8.551862091E-3,4.657710437E-3,3.862545966E-1
2.477888060E-1,-3.952945471E-1,8.551862091E-3,4.046862945E-3,3.954077521E-1
2.502967740E-1,-4.038463831E-1,7.330167107E-3,5.268557463E-3,4.039472616E-1
2.528046910E-1,-4.148416519E-1,9.773556143E-3,5.268557463E-3,4.149902122E-1
2.553126080E-1,-4.258368909E-1,9.162709117E-3,4.657710437E-3,4.259609221E-1
2.578205760E-1,-4.368321598E-1,7.941014133E-3,3.436015919E-3,4.369178432E-1
2.603284930E-1,-4.490490854E-1,6.719320081E-3,3.817795368E-4,4.490995169E-1
2.628364100E-1,-4.618768692E-1,1.160609815E-2,3.436015919E-3,4.620354424E-1
2.653443780E-1,-4.765372276E-1,9.162709117E-3,3.436015919E-3,4.766376934E-1
2.678522950E-1,-4.899758697E-1,9.162709117E-3,5.268557463E-3,4.900898548E-1
2.703602120E-1,-5.034145117E-1,4.275931045E-3,4.657710437E-3,5.034542168E-1
2.728681810E-1,-5.180748105E-1,5.497625098E-3,4.657710437E-3,5.181249149E-1
2.753760970E-1,-5.315134525E-1,1.099525020E-2,6.490251981E-3,5.316667839E-1
2.778840140E-1,-5.437304378E-1,6.108472589E-3,5.879404955E-3,5.437965334E-1
2.803919830E-1,-5.590016246E-1,8.551862091E-3,2.825168660E-3,5.590741742E-1
2.828998990E-1,-5.718293786E-1,1.099525020E-2,4.046862945E-3,5.719493954E-1
2.854078160E-1,-5.901548266E-1,9.773556143E-3,6.490251981E-3,5.902714335E-1
2.879157850E-1,-6.097019315E-1,1.038440317E-2,5.268557463E-3,6.098131179E-1
2.904237010E-1,-6.335249543E-1,9.773556143E-3,7.101099472E-3,6.336401311E-1
2.929316180E-1,-6.634564996E-1,1.038440317E-2,4.657710437E-3,6.635541100E-1
2.954395350E-1,-6.915554404E-1,9.162709117E-3,5.268557463E-3,6.916362050E-1
2.979475030E-1,-7.257629037E-1,8.551862091E-3,7.101099472E-3,7.258480229E-1
3.004554200E-1,-7.605811954E-1,1.343864016E-2,5.268557463E-3,7.607181538E-1
3.029633890E-1,-7.923452258E-1,1.588202827E-2,5.268557463E-3,7.925218946E-1
3.054713060E-1,-8.247201443E-1,1.038440317E-2,7.711946499E-3,8.248215724E-1
3.079792220E-1,-8.540408015E-1,1.221694518E-2,8.322793990E-3,8.541687265E-1
3.104871910E-1,-8.858048916E-1,1.404948719E-2,8.322793990E-3,8.859553956E-1
3.129951080E-1,-9.169580936E-1,1.771457121E-2,8.933641016E-3,9.171726999E-1
3.155030240E-1,-9.548306465E-1,1.221694518E-2,2.825168660E-3,9.549129797E-1
3.180109930E-1,-1.004309297E0,1.343864016E-2,2.825168660E-3,1.004403177E0
3.205189100E-1,-1.055009604E0,2.321219631E-2,1.198787708E-2,1.055333018E0
3.230268260E-1,-1.101433992E0,1.710372418E-2,9.544488043E-3,1.101608131E0
3.255347950E-1,-1.146025777E0,1.527118124E-2,8.933641016E-3,1.146162336E0
3.280427120E-1,-1.194282770E0,1.771457121E-2,1.320957206E-2,1.194487184E0
3.305506280E-1,-1.243761420E0,1.771457121E-2,1.443126611E-2,1.243971277E0
3.330585450E-1,-1.295148849E0,1.771457121E-2,1.137703005E-2,1.295319955E0
3.355665140E-1,-1.350125194E0,2.137965336E-2,1.259872504E-2,1.350353234E0
3.380744310E-1,-1.408766508E0,2.199050039E-2,1.504211407E-2,1.409018425E0
3.405823990E-1,-1.467407823E0,2.443389036E-2,1.626380906E-2,1.467701347E0
3.430903160E-1,-1.525438309E0,2.137965336E-2,1.504211407E-2,1.525662279E0
3.455982330E-1,-1.585912228E0,2.443389036E-2,1.565296017E-2,1.586177677E0
3.481062010E-1,-1.648829460E0,2.076880634E-2,1.626380906E-2,1.649040461E0
3.506141180E-1,-1.716633558E0,2.321219631E-2,1.809635013E-2,1.716885860E0
3.531220350E-1,-1.782605052E0,3.176405653E-2,1.626380906E-2,1.782962209E0
3.556300030E-1,-1.849187374E0,2.993151546E-2,1.382041909E-2,1.849481237E0
3.581379200E-1,-1.913937211E0,2.443389036E-2,1.931804419E-2,1.914190651E0
3.606458370E-1,-1.981130362E0,3.298575059E-2,1.992889121E-2,1.981505168E0
3.631538060E-1,-2.048323631E0,2.260134928E-2,2.176143415E-2,2.048563907E0
3.656617220E-1,-2.117960215E0,2.870982140E-2,2.359397523E-2,2.118286194E0
3.681696390E-1,-2.184542418E0,3.115320951E-2,2.176143415E-2,2.184872915E0
3.706776080E-1,-2.251124859E0,3.542914242E-2,2.298312820E-2,2.251520948E0
3.731855240E-1,-2.311598778E0,3.359659761E-2,2.420482226E-2,2.311969618E0
3.756934410E-1,-2.373905182E0,3.787253052E-2,2.481566928E-2,2.374336951E0
3.782014100E-1,-2.430713892E0,3.787253052E-2,2.603736520E-2,2.431148350E0
3.807093260E-1,-2.486300945E0,3.726168349E-2,2.603736520E-2,2.486716463E0
3.832172430E-1,-2.538223028E0,3.726168349E-2,2.542651631E-2,2.538623856E0
3.857252120E-1,-2.582204103E0,3.665083647E-2,2.725905925E-2,2.582608056E0
3.882331280E-1,-2.621298313E0,3.603998944E-2,2.786990628E-2,2.621694196E0
3.907410450E-1,-2.665890217E0,4.337015375E-2,3.642176837E-2,2.666491733E0
3.932490140E-1,-2.701930046E0,3.970507160E-2,2.970244735E-2,2.702385003E0
3.957569310E-1,-2.737359285E0,4.092676565E-2,2.542651631E-2,2.737783294E0
3.982648470E-1,-2.759960651E0,3.787253052E-2,3.153498843E-2,2.760400620E0
4.007728160E-1,-2.785616159E0,3.848337755E-2,3.153498843E-2,2.786060447E0
4.032807330E-1,-2.810660839E0,4.642439261E-2,2.909160033E-2,2.811194746E0
4.057886490E-1,-2.832040548E0,4.031591862E-2,2.359397523E-2,2.832425765E0
4.082966180E-1,-2.855252743E0,4.398100078E-2,3.153498843E-2,2.855765573E0
4.108045350E-1,-2.876632452E0,4.214845970E-2,3.336753324E-2,2.877134712E0
4.133124510E-1,-2.905953169E0,4.275930673E-2,2.725905925E-2,2.906395574E0
4.158204200E-1,-2.927943707E0,4.031591862E-2,2.848075330E-2,2.928359758E0
4.183283370E-1,-2.958486080E0,4.214845970E-2,3.275668249E-2,2.958967621E0
4.208362530E-1,-2.992082596E0,4.337015375E-2,3.153498843E-2,2.992563063E0
4.233442220E-1,-3.024457455E0,4.214845970E-2,2.909160033E-2,3.024891024E0
4.258521390E-1,-3.056221485E0,4.459185153E-2,3.153498843E-2,3.056709449E0
4.283600560E-1,-3.091650724E0,4.214845970E-2,3.153498843E-2,3.092098826E0
4.308680240E-1,-3.128912449E0,4.520269856E-2,3.153498843E-2,3.129397842E0
4.333759410E-1,-3.162508965E0,4.092676565E-2,3.214583546E-2,3.162937133E0
4.358838580E-1,-3.191829681E0,4.092676565E-2,3.153498843E-2,3.192247824E0
4.383918260E-1,-3.220539570E0,3.909422457E-2,3.153498843E-2,3.220931222E0
4.408997430E-1,-3.252914429E0,4.703523964E-2,3.458922729E-2,3.253438336E0
4.434076600E-1,-3.276737452E0,4.398100078E-2,3.458922729E-2,3.277215139E0
4.459156280E-1,-3.303003788E0,4.703523964E-2,3.581092134E-2,3.303532770E0
4.484235450E-1,-3.331713676E0,5.192201585E-2,3.458922729E-2,3.332297756E0
4.509314620E-1,-3.358590841E0,4.337015375E-2,3.397838026E-2,3.359042712E0
4.534394310E-1,-3.381192207E0,4.642439261E-2,3.458922729E-2,3.381687801E0
4.559473470E-1,-3.403793573E0,4.703523964E-2,3.458922729E-2,3.404294261E0
4.584552640E-1,-3.425784111E0,4.703523964E-2,3.275668249E-2,3.426263576E0
4.609632330E-1,-3.446552992E0,5.070032179E-2,3.336753324E-2,3.447087385E0
4.634711490E-1,-3.464878321E0,5.008947477E-2,3.764346242E-2,3.465444815E0
4.659790660E-1,-3.486868858E0,5.008947477E-2,3.886515647E-2,3.487445181E0
4.684870350E-1,-3.506416082E0,4.764608666E-2,3.520007432E-2,3.506916443E0
4.709949510E-1,-3.526573896E0,4.947862774E-2,3.764346242E-2,3.527121859E0
4.735028680E-1,-3.541845083E0,4.886778072E-2,3.642176837E-2,3.542369433E0
4.760108370E-1,-3.557727098E0,4.703523964E-2,3.825430945E-2,3.558243642E0
4.785187530E-1,-3.570554972E0,5.253286287E-2,3.458922729E-2,3.571108921E0
4.810267220E-1,-3.579106808E0,5.192201585E-2,3.642176837E-2,3.579668697E0
4.835346390E-1,-3.587658644E0,5.375456065E-2,3.703261539E-2,3.588252431E0
4.860425560E-1,-3.596210480E0,5.314370990E-2,3.764346242E-2,3.596800119E0
4.885505240E-1,-3.599875689E0,4.703523964E-2,3.397838026E-2,3.600343292E0
4.910584410E-1,-3.603540659E0,4.947862774E-2,3.642176837E-2,3.604064367E0
4.935663580E-1,-3.607205868E0,5.131116882E-2,3.764346242E-2,3.607767182E0
4.960743260E-1,-3.608427525E0,4.886778072E-2,3.581092134E-2,3.608936087E0
4.985822430E-1,-3.612703323E0,5.253286287E-2,3.825430945E-2,3.613287754E0
5.010901600E-1,-3.615146875E0,5.436540768E-2,3.947600350E-2,3.615771133E0
5.035981280E-1,-3.617590189E0,5.192201585E-2,4.008685052E-2,3.618184852E0
5.061060450E-1,-3.619422674E0,5.131116882E-2,4.008685052E-2,3.620008327E0
5.086139620E-1,-3.625531197E0,4.886778072E-2,3.825430945E-2,3.626062315E0
5.111219310E-1,-3.632861376E0,5.131116882E-2,3.947600350E-2,3.633438174E0
5.136298470E-1,-3.640191555E0,4.642439261E-2,3.581092134E-2,3.640663704E0
5.161377640E-1,-3.641413212E0,5.253286287E-2,3.764346242E-2,3.641986671E0
5.186457330E-1,-3.634083033E0,5.008947477E-2,3.703261539E-2,3.634616879E0
5.211536490E-1,-3.623087883E0,5.192201585E-2,4.008685052E-2,3.623681644E0
5.236615660E-1,-3.613314152E0,5.375456065E-2,4.008685052E-2,3.613936312E0
5.261695350E-1,-3.605983973E0,5.253286287E-2,3.642176837E-2,3.606550521E0
5.286774510E-1,-3.592545509E0,5.192201585E-2,3.947600350E-2,3.593137555E0
5.311854200E-1,-3.574830770E0,5.192201585E-2,3.642176837E-2,3.575393332E0
5.336933370E-1,-3.565668106E0,5.070032179E-2,3.581092134E-2,3.566208349E0
5.362012530E-1,-3.569333315E0,5.375456065E-2,3.886515647E-2,3.569949631E0
5.387091700E-1,-3.567500591E0,5.253286287E-2,3.520007432E-2,3.568060988E0
5.412171390E-1,-3.556505442E0,5.131116882E-2,4.069769755E-2,3.557108390E0
5.437250560E-1,-3.552840471E0,5.436540768E-2,4.008685052E-2,3.553482513E0
5.462330240E-1,-3.553451300E0,4.703523964E-2,3.581092134E-2,3.553943004E0
5.487409410E-1,-3.553451300E0,5.497625470E-2,3.581092134E-2,3.554056971E0
5.512488580E-1,-3.547953606E0,5.192201585E-2,3.703261539E-2,3.548526750E0
5.537568260E-1,-3.546731949E0,4.947862774E-2,3.642176837E-2,3.547264044E0
5.562647430E-1,-3.547342777E0,5.008947477E-2,3.764346242E-2,3.547896104E0
5.587726600E-1,-3.546121120E0,4.337015375E-2,3.825430945E-2,3.546592641E0
5.612806280E-1,-3.548564434E0,5.131116882E-2,3.825430945E-2,3.549141554E0
5.637885450E-1,-3.550396919E0,4.886778072E-2,3.825430945E-2,3.550939275E0
5.662964620E-1,-3.555894613E0,4.886778072E-2,3.581092134E-2,3.556410688E0
5.688044310E-1,-3.558337927E0,4.764608666E-2,3.642176837E-2,3.558843281E0
5.713123470E-1,-3.563835621E0,4.825693369E-2,4.008685052E-2,3.564387748E0
5.738202640E-1,-3.567500591E0,5.008947477E-2,3.825430945E-2,3.568057289E0
5.763282330E-1,-3.570554972E0,5.192201585E-2,3.886515647E-2,3.571143963E0
5.788361490E-1,-3.574830770E0,4.459185153E-2,3.703261539E-2,3.575300671E0
5.813440660E-1,-3.578495979E0,4.703523964E-2,4.069769755E-2,3.579036475E0
5.838520350E-1,-3.579717636E0,4.947862774E-2,3.886515647E-2,3.580270519E0
5.863599510E-1,-3.580939293E0,4.520269856E-2,3.703261539E-2,3.581416049E0
5.888679200E-1,-3.581550121E0,4.764608666E-2,3.703261539E-2,3.582058463E0
5.913758370E-1,-3.582160950E0,4.520269856E-2,3.581092134E-2,3.582625124E0
5.938837530E-1,-3.586436987E0,4.886778072E-2,3.703261539E-2,3.586961073E0
5.963917220E-1,-3.588269472E0,5.008947477E-2,3.642176837E-2,3.588803882E0
5.988996390E-1,-3.587047815E0,5.008947477E-2,3.581092134E-2,3.587576258E0
6.014075560E-1,-3.590712786E0,5.070032179E-2,3.642176837E-2,3.591255404E0
6.039155240E-1,-3.596210480E0,5.192201585E-2,3.825430945E-2,3.596788721E0
6.064234410E-1,-3.601097345E0,4.947862774E-2,3.825430945E-2,3.601640406E0
6.089313580E-1,-3.608427525E0,4.764608666E-2,3.825430945E-2,3.608944824E0
6.114393260E-1,-3.616979361E0,5.558710173E-2,3.825430945E-2,3.617608742E0
6.139472430E-1,-3.616979361E0,5.558710173E-2,3.947600350E-2,3.617621867E0
6.164551600E-1,-3.610870838E0,4.947862774E-2,4.008685052E-2,3.611432306E0
6.189631280E-1,-3.599264860E0,5.314370990E-2,4.008685052E-2,3.599880379E0
6.214710450E-1,-3.583382845E0,5.131116882E-2,3.886515647E-2,3.583960930E0
6.239790140E-1,-3.568111658E0,5.008947477E-2,3.764346242E-2,3.568661765E0
6.264869310E-1,-3.547342777E0,4.642439261E-2,3.703261539E-2,3.547839824E0
6.289948470E-1,-3.524741411E0,4.703523964E-2,3.703261539E-2,3.525249742E0
6.315028160E-1,-3.506416082E0,4.886778072E-2,3.703261539E-2,3.506952126E0
6.340107330E-1,-3.486868858E0,5.192201585E-2,3.825430945E-2,3.487465229E0
6.365186490E-1,-3.464878321E0,5.436540768E-2,3.886515647E-2,3.465522742E0
6.390266180E-1,-3.445942163E0,4.398100078E-2,3.581092134E-2,3.446408877E0
6.415345350E-1,-3.431892633E0,4.642439261E-2,3.581092134E-2,3.432393435E0
6.440424510E-1,-3.417232275E0,5.253286287E-2,3.458922729E-2,3.417811074E0
6.465504200E-1,-3.401350260E0,4.703523964E-2,3.336753324E-2,3.401839105E0
6.490583370E-1,-3.387300730E0,4.581354558E-2,3.520007432E-2,3.387793406E0
6.515662530E-1,-3.377527237E0,5.131116882E-2,3.703261539E-2,3.378119963E0
6.540742220E-1,-3.370807886E0,4.581354558E-2,3.520007432E-2,3.371302972E0
6.565821390E-1,-3.364699364E0,4.886778072E-2,3.703261539E-2,3.365257982E0
6.590900560E-1,-3.356147528E0,4.947862774E-2,3.642176837E-2,3.356709834E0
6.615980240E-1,-3.343319654E0,4.581354558E-2,4.008685052E-2,3.343873824E0
6.641059410E-1,-3.329881191E0,4.825693369E-2,3.947600350E-2,3.330464808E0
6.666138580E-1,-3.315220833E0,5.131116882E-2,3.825430945E-2,3.315838566E0
6.691218260E-1,-3.292008638E0,5.008947477E-2,3.825430945E-2,3.292611915E0
6.716297430E-1,-3.266963959E0,4.825693369E-2,3.642176837E-2,3.267523341E0
6.741377120E-1,-3.237032413E0,4.703523964E-2,3.642176837E-2,3.237578988E0
6.766456280E-1,-3.205268383E0,4.703523964E-2,3.520007432E-2,3.205806726E0
6.791535450E-1,-3.168617487E0,4.398100078E-2,3.336753324E-2,3.169098373E0
6.816615140E-1,-3.128301620E0,4.398100078E-2,3.214583546E-2,3.128775913E0
6.841694310E-1,-3.082488060E0,4.581354558E-2,3.275668249E-2,3.083002517E0
6.866773470E-1,-3.037896156E0,4.398100078E-2,3.581092134E-2,3.038425547E0
6.891853160E-1,-2.989639282E0,4.398100078E-2,3.336753324E-2,2.990148953E0
6.916932330E-1,-2.937717199E0,4.275930673E-2,3.092414327E-2,2.938191111E0
6.942011490E-1,-2.883351803E0,4.092676565E-2,3.153498843E-2,2.883814674E0
6.967091180E-1,-2.831429720E0,4.214845970E-2,3.092414327E-2,2.831912261E0
6.992170350E-1,-2.776453495E0,4.520269856E-2,2.786990628E-2,2.776961294E0
7.017250030E-1,-2.714757919E0,4.153761268E-2,2.786990628E-2,2.715218714E0
7.042329200E-1,-2.657338381E0,3.848337755E-2,2.909160033E-2,2.657776244E0
7.067408370E-1,-2.601140261E0,3.665083647E-2,2.664821222E-2,2.601534944E0
7.092488060E-1,-2.543109894E0,3.665083647E-2,2.725905925E-2,2.543520055E0
7.117567220E-1,-2.483857632E0,3.726168349E-2,2.664821222E-2,2.484280035E0
7.142646390E-1,-2.429492235E0,3.481829539E-2,2.786990628E-2,2.429901555E0
7.167726080E-1,-2.373905182E0,3.665083647E-2,2.420482226E-2,2.374311473E0
7.192805240E-1,-2.318928957E0,3.665083647E-2,2.298312820E-2,2.319332450E0
7.217884410E-1,-2.268839359E0,3.420744836E-2,2.176143415E-2,2.269201566E0
7.242964100E-1,-2.220582485E0,3.176405653E-2,2.237228118E-2,2.220922342E0
7.268043260E-1,-2.180877447E0,3.298575059E-2,1.931804419E-2,2.181212435E0
7.293122950E-1,-2.147280931E0,2.932066843E-2,1.931804419E-2,2.147567994E0
7.318202120E-1,-2.123457670E0,2.993151546E-2,2.053973824E-2,2.123767938E0
7.343281280E-1,-2.104521513E0,3.115320951E-2,2.053973824E-2,2.104852299E0
7.368360970E-1,-2.087417841E0,3.359659761E-2,1.809635013E-2,2.087766618E0
7.393440140E-1,-2.069703341E0,2.382304333E-2,1.931804419E-2,2.069930589E0
7.418519310E-1,-2.051988602E0,3.176405653E-2,2.237228118E-2,2.052356376E0
7.443598990E-1,-2.028165579E0,2.870982140E-2,2.420482226E-2,2.028513185E0
7.468678160E-1,-2.003120899E0,2.993151546E-2,2.359397523E-2,2.003483443E0
7.493757330E-1,-1.976854444E0,2.932066843E-2,2.115058713E-2,1.977185004E0
7.518837010E-1,-1.947533727E0,3.298575059E-2,1.809635013E-2,1.947897111E0
7.543916180E-1,-1.915158868E0,2.504473738E-2,2.053973824E-2,1.915432747E0
7.568995870E-1,-1.879118919E0,2.870982140E-2,1.809635013E-2,1.879425350E0
7.594075030E-1,-1.845522285E0,3.115320951E-2,1.809635013E-2,1.845873913E0
7.619154200E-1,-1.807649732E0,2.076880634E-2,1.687465608E-2,1.807847795E0
7.644233890E-1,-1.773442268E0,3.054236248E-2,2.053973824E-2,1.773824173E0
7.669313060E-1,-1.738623977E0,2.932066843E-2,1.992889121E-2,1.738985392E0
7.694392220E-1,-1.707470775E0,2.748812735E-2,1.443126611E-2,1.707752999E0
7.719471910E-1,-1.676928401E0,2.443389036E-2,1.443126611E-2,1.677168488E0
7.744551080E-1,-1.650051117E0,2.809897438E-2,1.320957206E-2,1.650343217E0
7.769630240E-1,-1.629282355E0,2.321219631E-2,1.626380906E-2,1.629528862E0
7.794709930E-1,-1.613400340E0,2.321219631E-2,1.565296017E-2,1.613643232E0
7.819789100E-1,-1.604237556E0,2.443389036E-2,1.687465608E-2,1.604512358E0
7.844868780E-1,-1.599961638E0,2.626643144E-2,1.809635013E-2,1.600279553E0
7.869947950E-1,-1.603015900E0,2.687728032E-2,1.748550311E-2,1.603336554E0
7.895027120E-1,-1.606070161E0,2.504473738E-2,1.748550311E-2,1.606360589E0
7.920106810E-1,-1.617676258E0,2.443389036E-2,1.504211407E-2,1.617930702E0
7.945185970E-1,-1.632336617E0,2.870982140E-2,1.382041909E-2,1.632647570E0
7.970265140E-1,-1.649440289E0,2.199050039E-2,1.626380906E-2,1.649667045E0
7.995344830E-1,-1.675706744E0,2.260134928E-2,1.687465608E-2,1.675944112E0
8.020423990E-1,-1.707470775E0,2.809897438E-2,1.870719716E-2,1.707804426E0
8.045503160E-1,-1.742899895E0,2.748812735E-2,1.870719716E-2,1.743217026E0
8.070582850E-1,-1.785048366E0,2.626643144E-2,1.809635013E-2,1.785333322E0
8.095662010E-1,-1.834527016E0,2.748812735E-2,1.626380906E-2,1.834805025E0
8.120741180E-1,-1.885838151E0,2.443389036E-2,1.626380906E-2,1.886066557E0
8.145820870E-1,-1.947533727E0,2.993151546E-2,1.687465608E-2,1.947836817E0
8.170900030E-1,-2.013505220E0,3.237490356E-2,2.237228118E-2,2.013889750E0
8.195979720E-1,-2.080698490E0,2.687728032E-2,2.176143415E-2,2.080985861E0
8.221058890E-1,-2.154611111E0,3.298575059E-2,2.053973824E-2,2.154961480E0
8.246138060E-1,-2.229134321E0,3.298575059E-2,2.298312820E-2,2.229496828E0
8.271217740E-1,-2.306101084E0,3.298575059E-2,2.359397523E-2,2.306457661E0
8.296296910E-1,-2.389176369E0,3.176405653E-2,2.359397523E-2,2.389503997E0
8.321376600E-1,-2.474084139E0,3.542914242E-2,2.481566928E-2,2.474462238E0
8.346455760E-1,-2.563267708E0,3.787253052E-2,2.725905925E-2,2.563692401E0
8.371534930E-1,-2.650619030E0,3.542914242E-2,2.481566928E-2,2.650971951E0
8.396614620E-1,-2.742856979E0,3.848337755E-2,2.909160033E-2,2.743281192E0
8.421693780E-1,-2.833262205E0,3.970507160E-2,3.092414327E-2,2.833709145E0
8.446772950E-1,-2.924278498E0,4.275930673E-2,3.153498843E-2,2.924761109E0
8.471852640E-1,-3.017127275E0,4.092676565E-2,3.642176837E-2,3.017624652E0
8.496931810E-1,-3.106311083E0,4.520269856E-2,3.520007432E-2,3.106839370E0
8.522010970E-1,-3.192440510E0,4.398100078E-2,3.397838026E-2,3.192924250E0
8.547090660E-1,-3.269407272E0,4.886778072E-2,3.520007432E-2,3.269961929E0
8.572169830E-1,-3.339043856E0,4.764608666E-2,3.703261539E-2,3.339589112E0
8.597248990E-1,-3.402571917E0,4.581354558E-2,3.764346242E-2,3.403088532E0
8.622328680E-1,-3.459991693E0,4.764608666E-2,3.764346242E-2,3.460524483E0
8.647407850E-1,-3.513746262E0,4.947862774E-2,3.825430945E-2,3.514302821E0
8.672487530E-1,-3.561392307E0,4.886778072E-2,3.825430945E-2,3.561932989E0
8.697566700E-1,-3.608427525E0,5.131116882E-2,4.130854458E-2,3.609028738E0
8.722645870E-1,-3.649965048E0,5.253286287E-2,4.008685052E-2,3.650563177E0
8.747725560E-1,-3.686005116E0,5.131116882E-2,4.253023863E-2,3.686607569E0
8.772804720E-1,-3.717158318E0,5.192201585E-2,4.130854458E-2,3.717750429E0
8.797883890E-1,-3.754420042E0,5.375456065E-2,4.130854458E-2,3.755032064E0
8.822963580E-1,-3.792903423E0,5.436540768E-2,4.314108938E-2,3.793538339E0
8.848042740E-1,-3.828943253E0,5.314370990E-2,4.130854458E-2,3.829534839E0
8.873121910E-1,-3.863761663E0,5.803048983E-2,4.069769755E-2,3.864411732E0
8.898201600E-1,-3.893693209E0,5.497625470E-2,4.191939160E-2,3.894306925E0
8.923280760E-1,-3.927900553E0,5.558710173E-2,4.008685052E-2,3.928498394E0
8.948360450E-1,-3.953021765E0,5.253286287E-2,3.886515647E-2,3.953561847E0
8.973439620E-1,-3.978677273E0,6.047387794E-2,4.375193641E-2,3.979377359E0
8.998518780E-1,-4.001889229E0,5.436540768E-2,4.497363046E-2,4.002511165E0
9.023598470E-1,-4.017160416E0,5.680879578E-2,4.497363046E-2,4.017813793E0
9.048677640E-1,-4.031209946E0,6.169557199E-2,4.558447748E-2,4.031939721E0
9.073756810E-1,-4.038540363E0,5.925218388E-2,4.497363046E-2,4.039225385E0
9.098836490E-1,-4.042816162E0,5.436540768E-2,4.436278343E-2,4.043425055E0
9.123915660E-1,-4.048924923E0,5.375456065E-2,4.191939160E-2,4.049498712E0
9.148995350E-1,-4.058087349E0,5.619794875E-2,4.130854458E-2,4.058686676E0
9.174074510E-1,-4.074580193E0,5.680879578E-2,4.191939160E-2,4.075191802E0
9.199153680E-1,-4.084353924E0,5.375456065E-2,4.130854458E-2,4.084916514E0
9.224233370E-1,-4.092905521E0,5.864133686E-2,4.069769755E-2,4.093527906E0
9.249312530E-1,-4.106955051E0,5.680879578E-2,4.069769755E-2,4.107549554E0
9.274391700E-1,-4.117339611E0,5.436540768E-2,4.314108938E-2,4.117924504E0
9.299471390E-1,-4.126502514E0,5.436540768E-2,4.497363046E-2,4.127105671E0
9.324550560E-1,-4.134443283E0,5.680879578E-2,4.680617154E-2,4.135098465E0
9.349629720E-1,-4.141162872E0,6.108472496E-2,4.619532451E-2,4.141870989E0
9.374709410E-1,-4.142384529E0,5.741964281E-2,4.680617154E-2,4.143046876E0
9.399788580E-1,-4.138108253E0,5.558710173E-2,4.314108938E-2,4.138706440E0
9.424868260E-1,-4.130778313E0,5.864133686E-2,4.191939160E-2,4.131407207E0
9.449947430E-1,-4.120393753E0,5.680879578E-2,4.253023863E-2,4.121004822E0
9.475026600E-1,-4.110620499E0,5.741964281E-2,4.008685052E-2,4.111216955E0
9.500106280E-1,-4.097792625E0,6.108472496E-2,4.130854458E-2,4.098456068E0
9.525185450E-1,-4.077634335E0,5.497625470E-2,4.069769755E-2,4.078207996E0
9.550264620E-1,-4.065417767E0,5.803048983E-2,4.558447748E-2,4.066087444E0
9.575344310E-1,-4.051979065E0,5.436540768E-2,4.375193641E-2,4.052579940E0
9.600423470E-1,-4.034264565E0,5.253286287E-2,4.130854458E-2,4.034818047E0
9.625503160E-1,-4.018382549E0,5.314370990E-2,4.191939160E-2,4.018952575E0
9.650582330E-1,-4.002500534E0,5.497625470E-2,4.191939160E-2,4.003097569E0
9.675661490E-1,-3.984174967E0,5.619794875E-2,4.253023863E-2,3.984798263E0
9.700741180E-1,-3.964627743E0,5.558710173E-2,4.191939160E-2,3.965238997E0
9.725820350E-1,-3.938284874E0,5.314370990E-2,4.558447748E-2,3.938907202E0
9.750899510E-1,-3.910796881E0,5.558710173E-2,4.680617154E-2,3.911471972E0
9.775979200E-1,-3.880865335E0,5.192201585E-2,3.947600350E-2,3.881413403E0
9.801058370E-1,-3.858874798E0,5.558710173E-2,4.008685052E-2,3.859483332E0
9.826138060E-1,-3.833830118E0,5.131116882E-2,3.825430945E-2,3.834364302E0
9.851217220E-1,-3.811228752E0,5.741964281E-2,3.825430945E-2,3.811853225E0
9.876296390E-1,-3.777632236E0,5.436540768E-2,3.886515647E-2,3.778223314E0
9.901376080E-1,-3.739148855E0,5.436540768E-2,4.191939160E-2,3.739779003E0
9.926455240E-1,-3.703108788E0,5.253286287E-2,4.130854458E-2,3.703711758E0
9.951534410E-1,-3.666457891E0,4.825693369E-2,3.886515647E-2,3.666981416E0
9.976614100E-1,-3.631028891E0,4.825693369E-2,3.825430945E-2,3.631551036E0
1.000169326E0,-3.595599651E0,4.703523964E-2,3.642176837E-2,3.596091727E0
1.002677295E0,-3.559559584E0,4.947862774E-2,3.581092134E-2,3.560083565E0
1.005185212E0,-3.525963068E0,4.764608666E-2,3.825430945E-2,3.526492464E0
1.007693128E0,-3.491144896E0,4.947862774E-2,3.947600350E-2,3.491718656E0
1.010201097E0,-3.449607134E0,4.520269856E-2,3.703261539E-2,3.450102039E0
1.012709014E0,-3.408069611E0,4.275930673E-2,3.764346242E-2,3.408545710E0
1.015216931E0,-3.365310192E0,4.398100078E-2,3.581092134E-2,3.365788086E0
1.017724899E0,-3.321940184E0,4.398100078E-2,3.703261539E-2,3.322437708E0
1.020232816E0,-3.274294138E0,4.275930673E-2,3.336753324E-2,3.274743326E0
1.022740733E0,-3.223593712E0,4.275930673E-2,3.458922729E-2,3.224062839E0
1.025248701E0,-3.173504114E0,4.581354558E-2,3.458922729E-2,3.174023260E0
1.027756618E0,-3.119138718E0,4.275930673E-2,3.764346242E-2,3.119658912E0
1.030264587E0,-3.060497522E0,4.275930673E-2,3.275668249E-2,3.060971487E0
1.032772503E0,-2.997580290E0,4.031591862E-2,3.214583546E-2,2.998023736E0
1.035280420E0,-2.932830334E0,4.031591862E-2,3.214583546E-2,2.933283569E0
1.037788389E0,-2.871134758E0,4.214845970E-2,2.970244735E-2,2.871597731E0
1.040296306E0,-2.812493563E0,4.153761268E-2,2.786990628E-2,2.812938347E0
1.042804222E0,-2.753852129E0,3.909422457E-2,2.970244735E-2,2.754289771E0
1.045312191E0,-2.699486732E0,3.787253052E-2,2.725905925E-2,2.699889998E0
1.047820108E0,-2.646342993E0,3.176405653E-2,2.909160033E-2,2.646693505E0
1.050328076E0,-2.594420910E0,3.481829539E-2,2.664821222E-2,2.594791379E0
1.052835993E0,-2.546164036E0,3.542914242E-2,2.664821222E-2,2.546549950E0
1.055343910E0,-2.498517990E0,3.481829539E-2,2.603736520E-2,2.498896237E0
1.057851878E0,-2.452093601E0,3.726168349E-2,2.298312820E-2,2.452484391E0
1.060359795E0,-2.412388563E0,4.031591862E-2,2.298312820E-2,2.412834884E0
1.062867712E0,-2.380624533E0,3.909422457E-2,2.115058713E-2,2.381039452E0
1.065375681E0,-2.356190681E0,3.603998944E-2,2.115058713E-2,2.356561214E0
1.067883597E0,-2.339697599E0,3.603998944E-2,2.176143415E-2,2.340076344E0
1.070391514E0,-2.327480793E0,3.420744836E-2,2.603736520E-2,2.327877775E0
1.072899483E0,-2.317707300E0,2.993151546E-2,2.481566928E-2,2.318033400E0
1.075407399E0,-2.309155464E0,3.237490356E-2,2.420482226E-2,2.309509248E0
1.077915368E0,-2.305490255E0,3.420744836E-2,2.176143415E-2,2.305846705E0
1.080423285E0,-2.304268599E0,3.176405653E-2,2.176143415E-2,2.304590265E0
1.082931201E0,-2.301825285E0,3.176405653E-2,2.176143415E-2,2.302147293E0
1.085439170E0,-2.301214218E0,3.420744836E-2,2.053973824E-2,2.301560103E0
1.087947087E0,-2.300603390E0,3.176405653E-2,2.603736520E-2,2.300969982E0
1.090455056E0,-2.305490255E0,2.993151546E-2,2.481566928E-2,2.305818083E0
1.092962972E0,-2.304879427E0,3.481829539E-2,2.359397523E-2,2.305263144E0
1.095470889E0,-2.309766293E0,2.932066843E-2,2.542651631E-2,2.310092322E0
1.097978858E0,-2.316485405E0,3.603998944E-2,2.176143415E-2,2.316867945E0
1.100486774E0,-2.321983099E0,2.932066843E-2,2.481566928E-2,2.322300805E0
1.102994691E0,-2.326869965E0,3.420744836E-2,2.542651631E-2,2.327260297E0
1.105502660E0,-2.331756592E0,2.993151546E-2,2.603736520E-2,2.332094047E0
1.108010576E0,-2.345195293E0,3.542914242E-2,2.298312820E-2,2.345575497E0
1.110518545E0,-2.359244823E0,3.359659761E-2,2.420482226E-2,2.359608175E0
1.113026462E0,-2.372683525E0,3.665083647E-2,2.481566928E-2,2.373096334E0
1.115534378E0,-2.387343884E0,3.542914242E-2,2.359397523E-2,2.387723334E0
1.118042347E0,-2.405058384E0,3.542914242E-2,2.115058713E-2,2.405412314E0
1.120550264E0,-2.425827265E0,3.726168349E-2,2.298312820E-2,2.426222285E0
1.123058181E0,-2.445985079E0,3.420744836E-2,2.848075330E-2,2.446390057E0
1.125566149E0,-2.463699818E0,3.665083647E-2,2.848075330E-2,2.464137015E0
1.128074066E0,-2.485690117E0,3.359659761E-2,2.481566928E-2,2.486041011E0
1.130582035E0,-2.510735035E0,3.542914242E-2,2.603736520E-2,2.511119986E0
1.133089951E0,-2.538833857E0,3.542914242E-2,2.786990628E-2,2.539234000E0
1.135597868E0,-2.566322088E0,3.603998944E-2,2.481566928E-2,2.566695104E0
1.138105837E0,-2.597475290E0,3.787253052E-2,2.725905925E-2,2.597894391E0
1.140613753E0,-2.631071806E0,3.237490356E-2,2.848075330E-2,2.631425115E0
1.143121670E0,-2.662835836E0,3.603998944E-2,3.092414327E-2,2.663259258E0
1.145629639E0,-2.697654247E0,2.870982140E-2,2.786990628E-2,2.697950968E0
1.148137556E0,-2.734305143E0,3.909422457E-2,2.848075330E-2,2.734732917E0
1.150645472E0,-2.774621010E0,3.603998944E-2,3.092414327E-2,2.775027375E0
1.153153441E0,-2.809439182E0,3.970507160E-2,3.153498843E-2,2.809896700E0
1.155661358E0,-2.851587772E0,3.970507160E-2,2.664821222E-2,2.851988682E0
1.158169326E0,-2.890071154E0,3.603998944E-2,3.031329438E-2,2.890454817E0
1.160677243E0,-2.935273886E0,3.420744836E-2,3.336753324E-2,2.935662843E0
1.163185160E0,-2.983530760E0,3.481829539E-2,3.275668249E-2,2.983913723E0
1.165693128E0,-3.042783022E0,3.787253052E-2,3.031329438E-2,3.043169687E0
1.168201045E0,-3.094094038E0,4.581354558E-2,3.458922729E-2,3.094626506E0
1.170709014E0,-3.145405293E0,3.909422457E-2,3.520007432E-2,3.145845174E0
1.173216931E0,-3.192440510E0,4.642439261E-2,3.336753324E-2,3.192952399E0
1.175724847E0,-3.237643242E0,4.764608666E-2,3.581092134E-2,3.238191831E0
1.178232816E0,-3.277348280E0,4.459185153E-2,3.642176837E-2,3.277853982E0
1.180740733E0,-3.318274975E0,4.092676565E-2,4.008685052E-2,3.318769465E0
1.183248649E0,-3.357369184E0,4.459185153E-2,3.642176837E-2,3.357862835E0
1.185756618E0,-3.397685051E0,4.214845970E-2,3.642176837E-2,3.398141660E0
1.188264535E0,-3.434335947E0,4.520269856E-2,4.008685052E-2,3.434867339E0
1.190772503E0,-3.474651814E0,4.520269856E-2,3.764346242E-2,3.475149715E0
1.193280420E0,-3.516189575E0,4.581354558E-2,3.947600350E-2,3.516709593E0
1.195788337E0,-3.555283785E0,4.703523964E-2,3.947600350E-2,3.555814036E0
1.198296306E0,-3.585826159E0,5.253286287E-2,4.069769755E-2,3.586441864E0
1.200804222E0,-3.610260010E0,4.398100078E-2,3.520007432E-2,3.610699477E0
1.203312139E0,-3.635915518E0,4.825693369E-2,3.825430945E-2,3.636436962E0
1.205820108E0,-3.658516884E0,5.070032179E-2,4.008685052E-2,3.659087764E0
1.208328024E0,-3.684783459E0,5.070032179E-2,3.886515647E-2,3.685337184E0
1.210835941E0,-3.715325832E0,5.008947477E-2,3.764346242E-2,3.715854145E0
1.213343910E0,-3.744646311E0,5.192201585E-2,3.886515647E-2,3.745207923E0
1.215851826E0,-3.778853893E0,5.497625470E-2,3.825430945E-2,3.779447384E0
1.218359795E0,-3.810007095E0,5.192201585E-2,3.886515647E-2,3.810559075E0
1.220867712E0,-3.848490477E0,5.192201585E-2,4.375193641E-2,3.849089383E0
1.223375628E0,-3.884530544E0,5.375456065E-2,4.314108938E-2,3.885141987E0
1.225883597E0,-3.919348717E0,5.497625470E-2,4.314108938E-2,3.919971672E0
1.228391514E0,-3.949356556E0,5.497625470E-2,4.130854458E-2,3.949955188E0
1.230899483E0,-3.970736265E0,5.497625470E-2,4.253023863E-2,3.971344570E0
1.233407399E0,-3.987839937E0,5.680879578E-2,4.497363046E-2,3.988498117E0
1.235915316E0,-4.007387161E0,5.619794875E-2,4.558447748E-2,4.008040421E0
1.238423285E0,-4.015327930E0,5.375456065E-2,4.619532451E-2,4.015953430E0
1.240931201E0,-4.022047520E0,5.375456065E-2,4.436278343E-2,4.022651347E0
1.243439118E0,-4.025101662E0,5.497625470E-2,4.497363046E-2,4.025728307E0
1.245947087E0,-4.036097050E0,5.375456065E-2,4.558447748E-2,4.036712387E0
1.248455003E0,-4.045870304E0,5.375456065E-2,4.314108938E-2,4.046457367E0
1.250962972E0,-4.054422379E0,5.558710173E-2,4.314108938E-2,4.055032910E0
1.253470889E0,-4.059919834E0,5.314370990E-2,4.436278343E-2,4.060509989E0
1.255978806E0,-4.061752319E0,5.741964281E-2,4.497363046E-2,4.062407112E0
1.258486774E0,-4.059309006E0,5.497625470E-2,4.375193641E-2,4.059917022E0
1.260994691E0,-4.052589893E0,5.375456065E-2,4.558447748E-2,4.053202726E0
1.263502608E0,-4.042205334E0,5.497625470E-2,4.497363046E-2,4.042829328E0
1.266010576E0,-4.025712490E0,5.680879578E-2,4.619532451E-2,4.026378311E0
1.268518493E0,-4.003722191E0,5.680879578E-2,4.253023863E-2,4.004351064E0
1.271026462E0,-3.973790407E0,5.619794875E-2,4.619532451E-2,3.974456242E0
1.273534378E0,-3.939583063E0,5.803048983E-2,4.375193641E-2,3.940253352E0
1.276042295E0,-3.896747351E0,5.192201585E-2,4.497363046E-2,3.897352747E0
1.278550264E0,-3.843603611E0,5.192201585E-2,4.130854458E-2,3.844176246E0
1.281058181E0,-3.786794901E0,5.131116882E-2,3.886515647E-2,3.787341938E0
1.283566097E0,-3.718990803E0,5.131116882E-2,4.069769755E-2,3.719567412E0
1.286074066E0,-3.640191555E0,4.520269856E-2,4.008685052E-2,3.640692901E0
1.288581983E0,-3.555894613E0,5.314370990E-2,3.886515647E-2,3.556504078E0
1.291089951E0,-3.464878321E0,4.520269856E-2,3.886515647E-2,3.465391112E0
1.293597868E0,-3.370197058E0,4.703523964E-2,4.008685052E-2,3.370763634E0
1.296105785E0,-3.274294138E0,5.008947477E-2,3.703261539E-2,3.274886635E0
1.298613753E0,-3.173504114E0,4.642439261E-2,3.642176837E-2,3.174052635E0
1.301121670E0,-3.076379538E0,4.642439261E-2,3.520007432E-2,3.076931154E0
1.303629587E0,-2.980476379E0,4.764608666E-2,3.397838026E-2,2.981050843E0
1.306137556E0,-2.891292810E0,4.031591862E-2,3.214583546E-2,2.891752556E0
1.308645472E0,-2.814326048E0,4.153761268E-2,2.970244735E-2,2.814789284E0
1.311153441E0,-2.744078636E0,4.092676565E-2,2.970244735E-2,2.744544552E0
1.313661358E0,-2.678107023E0,3.176405653E-2,2.481566928E-2,2.678410350E0
1.316169274E0,-2.615800619E0,3.726168349E-2,2.664821222E-2,2.616201720E0
1.318677243E0,-2.555937529E0,3.359659761E-2,2.848075330E-2,2.556316986E0
1.321185160E0,-2.502794027E0,2.748812735E-2,2.664821222E-2,2.503086828E0
1.323693128E0,-2.451482773E0,3.726168349E-2,2.542651631E-2,2.451897781E0
1.326201045E0,-2.406280041E0,3.359659761E-2,2.664821222E-2,2.406662106E0
1.328708962E0,-2.366575003E0,3.298575059E-2,2.786990628E-2,2.366968955E0
1.331216931E0,-2.334200144E0,3.542914242E-2,2.603736520E-2,2.334614204E0
1.333724847E0,-2.303657770E0,3.237490356E-2,2.298312820E-2,2.303999887E0
1.336232764E0,-2.284110546E0,3.115320951E-2,2.298312820E-2,2.284438604E0
1.338740733E0,-2.272504568E0,3.359659761E-2,2.542651631E-2,2.272895125E0
1.341248649E0,-2.272504568E0,2.993151546E-2,2.298312820E-2,2.272817884E0
1.343756566E0,-2.282888889E0,3.054236248E-2,2.237228118E-2,2.283202802E0
1.346264535E0,-2.302436113E0,3.481829539E-2,2.298312820E-2,2.302814060E0
1.348772451E0,-2.320150614E0,3.359659761E-2,2.359397523E-2,2.320513796E0
1.351280420E0,-2.345806122E0,3.176405653E-2,2.481566928E-2,2.346152411E0
1.353788337E0,-2.376959324E0,2.993151546E-2,2.542651631E-2,2.377283751E0
1.356296253E0,-2.408112526E0,3.176405653E-2,2.970244735E-2,2.408505165E0
1.358804222E0,-2.436822414E0,2.809897438E-2,2.848075330E-2,2.437150833E0
1.361312139E0,-2.472862482E0,3.542914242E-2,2.664821222E-2,2.473259834E0
1.363820108E0,-2.501572132E0,3.542914242E-2,2.542651631E-2,2.501952211E0
1.366328024E0,-2.526617050E0,3.848337755E-2,3.031329438E-2,2.527091922E0
1.368835941E0,-2.551050901E0,3.909422457E-2,2.970244735E-2,2.551523328E0
1.371343910E0,-2.571819782E0,3.665083647E-2,2.664821222E-2,2.572218965E0
1.373851826E0,-2.585258245E0,3.726168349E-2,2.970244735E-2,2.585697365E0
1.376359743E0,-2.592588425E0,3.359659761E-2,3.031329438E-2,2.592983295E0
1.378867712E0,-2.592588425E0,3.237490356E-2,3.092414327E-2,2.592974966E0
1.381375628E0,-2.592588425E0,3.481829539E-2,2.725905925E-2,2.592965505E0
1.383883545E0,-2.584036589E0,3.603998944E-2,2.848075330E-2,2.584444839E0
1.386391514E0,-2.571819782E0,3.970507160E-2,2.909160033E-2,2.572290770E0
1.388899431E0,-2.555937529E0,3.298575059E-2,2.725905925E-2,2.556295712E0
1.391407399E0,-2.537612200E0,3.115320951E-2,2.786990628E-2,2.537956448E0
1.393915316E0,-2.513789177E0,3.176405653E-2,2.909160033E-2,2.514158170E0
1.396423233E0,-2.482635975E0,3.298575059E-2,2.725905925E-2,2.483004732E0
1.398931201E0,-2.439876556E0,2.809897438E-2,2.664821222E-2,2.440183864E0
1.401439118E0,-2.395284891E0,3.115320951E-2,2.420482226E-2,2.395609757E0
1.403947087E0,-2.344584465E0,2.932066843E-2,2.420482226E-2,2.344892724E0
1.406455003E0,-2.291440725E0,2.748812735E-2,2.481566928E-2,2.291739953E0
1.408962920E0,-2.234632015E0,2.748812735E-2,2.481566928E-2,2.234938849E0
1.411470889E0,-2.177823305E0,2.993151546E-2,2.298312820E-2,2.178150240E0
1.413978806E0,-2.120403528E0,2.932066843E-2,2.176143415E-2,2.120717894E0
1.416486722E0,-2.060540438E0,2.626643144E-2,2.115058713E-2,2.060816384E0
1.418994691E0,-2.004953384E0,2.932066843E-2,1.870719716E-2,2.005255030E0
1.421502608E0,-1.951198816E0,2.687728032E-2,1.992889121E-2,1.951485683E0
1.424010576E0,-1.902941942E0,2.199050039E-2,1.809635013E-2,1.903155037E0
1.426518493E0,-1.857739210E0,2.260134928E-2,1.809635013E-2,1.857964820E0
1.429026410E0,-1.815590739E0,2.015795931E-2,1.992889121E-2,1.815812005E0
1.431534378E0,-1.774664044E0,2.199050039E-2,1.992889121E-2,1.774912171E0
1.434042295E0,-1.731293797E0,2.504473738E-2,1.870719716E-2,1.731575991E0
1.436550212E0,-1.693421364E0,2.260134928E-2,1.870719716E-2,1.693675499E0
1.439058181E0,-1.656770468E0,2.626643144E-2,1.687465608E-2,1.657064592E0
1.441566097E0,-1.624395609E0,2.504473738E-2,1.565296017E-2,1.624664072E0
1.444074066E0,-1.592631459E0,2.626643144E-2,1.809635013E-2,1.592950837E0
1.446581983E0,-1.566975951E0,2.137965336E-2,1.504211407E-2,1.567193985E0
1.449089899E0,-1.543152928E0,1.893626526E-2,1.687465608E-2,1.543361363E0
1.451597868E0,-1.524827480E0,2.260134928E-2,1.565296017E-2,1.525075303E0
1.454105785E0,-1.504669547E0,2.076880634E-2,1.809635013E-2,1.504921681E0
1.456613701E0,-1.488176584E0,2.504473738E-2,1.504211407E-2,1.488463318E0
1.459121670E0,-1.472905397E0,2.137965336E-2,1.626380906E-2,1.473150335E0
1.461629587E0,-1.462521076E0,1.710372418E-2,1.565296017E-2,1.462704841E0
1.464137556E0,-1.454580069E0,2.137965336E-2,1.504211407E-2,1.454814947E0
1.466645472E0,-1.448471546E0,2.504473738E-2,1.565296017E-2,1.448772610E0
1.469153389E0,-1.439919710E0,1.649287529E-2,1.320957206E-2,1.440074748E0
1.471661358E0,-1.430757046E0,1.771457121E-2,1.259872504E-2,1.430922170E0
1.474169274E0,-1.420372605E0,2.015795931E-2,1.504211407E-2,1.420595279E0
1.476677243E0,-1.409377337E0,1.832541823E-2,1.382041909E-2,1.409564224E0
1.479185160E0,-1.402657986E0,2.199050039E-2,1.626380906E-2,1.402924630E0
1.481693076E0,-1.395938754E0,2.382304333E-2,1.504211407E-2,1.396223051E0
1.484201045E0,-1.382500052E0,2.076880634E-2,1.870719716E-2,1.382782592E0
1.486708962E0,-1.370283127E0,2.443389036E-2,1.259872504E-2,1.370558861E0
1.489216878E0,-1.356233597E0,2.260134928E-2,1.565296017E-2,1.356512221E0
1.491724847E0,-1.340962410E0,1.588202827E-2,1.626380906E-2,1.341155075E0
1.494232764E0,-1.323858738E0,1.893626526E-2,1.382041909E-2,1.324066291E0
1.496740733E0,-1.305533290E0,1.832541823E-2,1.198787708E-2,1.305716930E0
1.499248649E0,-1.284153700E0,1.710372418E-2,1.259872504E-2,1.284329393E0
1.501756566E0,-1.256589174E0,2.199050039E-2,1.443126611E-2,1.256864430E0
1.504264535E0,-1.230322719E0,1.771457121E-2,1.259872504E-2,1.230514740E0
1.506772451E0,-1.200391173E0,1.649287529E-2,1.320957206E-2,1.200577143E0
1.509280368E0,-1.174735665E0,1.649287529E-2,1.320957206E-2,1.174925696E0
1.511788337E0,-1.148469210E0,1.710372418E-2,1.137703005E-2,1.148652907E0
1.514296253E0,-1.121591926E0,1.832541823E-2,1.259872504E-2,1.121812371E0
1.516804222E0,-1.094714642E0,1.710372418E-2,1.076618303E-2,1.094901180E0
1.519312139E0,-1.069669962E0,1.588202827E-2,8.933641016E-3,1.069825162E0
1.521820056E0,-1.045235991E0,1.588202827E-2,1.015533600E-2,1.045405973E0
1.524328024E0,-1.021412969E0,1.893626526E-2,1.137703005E-2,1.021651835E0
1.526835941E0,-9.969790578E-1,1.649287529E-2,1.198787708E-2,9.971875279E-1
1.529343858E0,-9.755994081E-1,1.404948719E-2,1.015533600E-2,9.757534136E-1
1.531851826E0,-9.511655569E-1,1.527118124E-2,9.544488043E-3,9.513360200E-1
1.534359743E0,-9.285641909E-1,1.160609815E-2,8.933641016E-3,9.286796908E-1
1.536867712E0,-9.059628248E-1,1.404948719E-2,9.544488043E-3,9.061220256E-1
1.539375628E0,-8.882482648E-1,1.466033421E-2,8.933641016E-3,8.884141575E-1
1.541883545E0,-8.680903316E-1,1.404948719E-2,1.015533600E-2,8.682634063E-1
1.544391514E0,-8.467106819E-1,1.343864016E-2,6.490251981E-3,8.468421927E-1
1.546899431E0,-8.289960623E-1,1.282779220E-2,7.101099472E-3,8.291257137E-1
1.549407399E0,-8.094489574E-1,1.099525020E-2,8.322793990E-3,8.095664143E-1
1.551915316E0,-7.935669422E-1,9.162709117E-3,7.101099472E-3,7.936516066E-1
1.554423233E0,-7.734090090E-1,1.160609815E-2,8.322793990E-3,7.735408623E-1
1.556931201E0,-7.501968145E-1,9.162709117E-3,6.490251981E-3,7.502808402E-1
1.559439118E0,-7.282062769E-1,9.773556143E-3,4.657710437E-3,7.282867556E-1
1.561947035E0,-7.013289928E-1,9.773556143E-3,5.879404955E-3,7.014217319E-1
1.564455003E0,-6.744517088E-1,8.551862091E-3,5.879404955E-3,6.745315480E-1
1.566962920E0,-6.494069695E-1,1.038440317E-2,5.879404955E-3,6.495166013E-1
1.569470889E0,-6.219188571E-1,8.551862091E-3,5.268557463E-3,6.219999653E-1
1.571978806E0,-5.956524611E-1,1.221694518E-2,2.825168660E-3,5.957844322E-1
1.574486722E0,-5.675534606E-1,7.330167107E-3,5.879404955E-3,5.676312442E-1
1.576994691E0,-5.406761765E-1,1.038440317E-2,4.657710437E-3,5.407959486E-1
1.579502608E0,-5.125772357E-1,5.497625098E-3,7.101099472E-3,5.126559002E-1
1.582010524E0,-4.850890934E-1,5.497625098E-3,4.657710437E-3,4.851426045E-1
1.584518493E0,-4.588226378E-1,1.160609815E-2,4.046862945E-3,4.589872455E-1
1.587026410E0,-4.337778986E-1,8.551862091E-3,5.268557463E-3,4.338941776E-1
1.589534378E0,-4.081223309E-1,1.038440317E-2,3.436015919E-3,4.082688808E-1
1.592042295E0,-3.794125021E-1,7.941014133E-3,5.268557463E-3,3.795321648E-1
1.594550212E0,-3.519243896E-1,9.162709117E-3,3.436015919E-3,3.520604173E-1
1.597058181E0,-3.250471056E-1,1.038440317E-2,2.825168660E-3,3.252252116E-1
1.599566097E0,-2.963372767E-1,4.886778072E-3,2.825168660E-3,2.963910318E-1
1.602074014E0,-2.670166194E-1,5.497625098E-3,-8.399150101E-4,2.670745297E-1
1.604581983E0,-2.376959324E-1,6.719320081E-3,1.603474026E-3,2.377962924E-1
1.607089899E0,-2.065427303E-1,6.108472589E-3,-3.894151188E-3,2.066697300E-1
1.609597868E0,-1.760003716E-1,7.330167107E-3,9.926267667E-4,1.761557477E-1
1.612105785E0,-1.436254680E-1,3.054236295E-3,2.214321401E-3,1.436750035E-1
1.614613701E0,-1.130831018E-1,1.221694518E-3,1.603474026E-3,1.131010680E-1
1.617121670E0,-8.192989230E-2,4.275931045E-3,2.214321401E-3,8.207127426E-2
1.619629587E0,-5.199837312E-2,-6.108472589E-4,-2.290677221E-4,5.200246546E-2
1.622137503E0,-2.389939874E-2,1.832541777E-3,-8.399150101E-4,2.398426415E-2
1.624645472E0,8.475505747E-3,3.665083554E-3,-8.399150101E-4,9.272135264E-3
1.627153389E0,4.085041210E-2,6.108472589E-4,-2.061609412E-3,4.090696196E-2
1.629661358E0,7.017108053E-2,-1.832541777E-3,-1.450762269E-3,7.020999547E-2
1.632169274E0,1.013242900E-1,-0.000000000E0,-2.061609412E-3,1.013452613E-1
1.634677191E0,1.312558055E-1,6.108472589E-4,-3.283303929E-3,1.312982852E-1
1.637185160E0,1.624090075E-1,-6.108472589E-4,-4.504998680E-3,1.624726250E-1
1.639693076E0,1.886754483E-1,-3.665083554E-3,-5.115845706E-3,1.887803737E-1
1.642201045E0,2.167744190E-1,-1.832541777E-3,-3.283303929E-3,2.168070271E-1
1.644708962E0,2.424300015E-1,-0.000000000E0,-3.283303929E-3,2.424522339E-1
1.647216878E0,2.705289721E-1,-1.832541777E-3,-3.283303929E-3,2.705551017E-1
1.649724847E0,2.949628830E-1,-6.108472589E-4,-3.283303929E-3,2.949817885E-1
1.652232764E0,3.206184506E-1,-3.665083554E-3,-5.726693198E-3,3.206905342E-1
1.654740681E0,3.487174213E-1,-5.497625098E-3,-5.115845706E-3,3.487982736E-1
1.657248649E0,3.737621605E-1,-3.054236295E-3,-3.894151188E-3,3.737949243E-1
1.659756566E0,4.012503028E-1,-4.275931045E-3,-3.894151188E-3,4.012919803E-1
1.662264535E0,4.330143631E-1,-9.162709117E-3,-4.504998680E-3,4.331347237E-1
1.664772451E0,4.635567069E-1,-3.054236295E-3,-6.337540224E-3,4.636100876E-1
1.667280368E0,4.965424538E-1,-3.054236295E-3,-6.948387716E-3,4.966004600E-1
1.669788337E0,5.344150066E-1,-5.497625098E-3,-5.115845706E-3,5.344677680E-1
1.672296253E0,5.728983879E-1,-3.665083554E-3,-6.337540224E-3,5.729451633E-1
1.674804170E0,6.132143140E-1,-5.497625098E-3,-9.391776286E-3,6.133108708E-1
1.677312139E0,6.523085237E-1,-9.162709117E-3,-8.170082234E-3,6.524240305E-1
1.679820056E0,6.938461065E-1,-7.330167107E-3,-1.000262424E-2,6.939569175E-1
1.682328024E0,7.329403758E-1,-1.038440317E-2,-1.000262424E-2,7.330821801E-1
1.684835941E0,7.708128691E-1,-9.773556143E-3,-7.559234742E-3,7.709118909E-1
1.687343858E0,8.092962503E-1,-7.941014133E-3,-1.244601328E-2,8.094309012E-1
1.689851826E0,8.447254300E-1,-1.160609815E-2,-1.061347127E-2,8.448718242E-1
1.692359743E0,8.807653785E-1,-1.038440317E-2,-1.000262424E-2,8.808833863E-1
1.694867660E0,9.186379313E-1,-1.038440317E-2,-1.183516532E-2,9.187728533E-1
1.697375628E0,9.528453946E-1,-1.099525020E-2,-1.061347127E-2,9.529679362E-1
1.699883545E0,9.913287163E-1,-1.404948719E-2,-1.366770733E-2,9.915224748E-1
1.702391514E0,1.026147008E0,-1.466033421E-2,-1.244601328E-2,1.026327195E0
1.704899431E0,1.059132814E0,-1.282779220E-2,-1.366770733E-2,1.059298672E0
1.707407347E0,1.093340278E0,-9.162709117E-3,-1.244601328E-2,1.093449506E0
1.709915316E0,1.127547741E0,-1.038440317E-2,-1.427855436E-2,1.127685959E0
1.712423233E0,1.159311771E0,-1.160609815E-2,-1.366770733E-2,1.159450426E0
1.714931201E0,1.189243317E0,-1.649287529E-2,-1.427855436E-2,1.189443382E0
1.717439118E0,1.216731429E0,-9.773556143E-3,-1.488940232E-2,1.216861778E0
1.719947035E0,1.242386937E0,-1.282779220E-2,-1.427855436E-2,1.242535203E0
1.722455003E0,1.265599132E0,-1.527118124E-2,-1.550024934E-2,1.265786170E0
1.724962920E0,1.283924580E0,-1.099525020E-2,-1.611109637E-2,1.284072735E0
1.727470837E0,1.302250028E0,-1.588202827E-2,-1.672194339E-2,1.302454221E0
1.729978806E0,1.313856125E0,-1.343864016E-2,-1.611109637E-2,1.314023623E0
1.732486722E0,1.327294707E0,-1.282779220E-2,-1.488940232E-2,1.327440201E0
1.734994639E0,1.338289976E0,-1.771457121E-2,-1.733279042E-2,1.338519440E0
1.737502608E0,1.343787670E0,-1.527118124E-2,-1.672194339E-2,1.343978473E0
1.740010524E0,1.346230984E0,-1.038440317E-2,-1.611109637E-2,1.346367433E0
1.742518493E0,1.349285245E0,-1.832541823E-2,-1.611109637E-2,1.349505858E0
1.745026410E0,1.350506902E0,-1.527118124E-2,-1.305686031E-2,1.350656352E0
1.747534326E0,1.352950335E0,-1.282779220E-2,-1.611109637E-2,1.353107064E0
1.750042295E0,1.356615424E0,-1.771457121E-2,-1.611109637E-2,1.356826733E0
1.752550212E0,1.361502171E0,-1.832541823E-2,-1.488940232E-2,1.361706898E0
1.755058128E0,1.366999865E0,-1.649287529E-2,-1.550024934E-2,1.367187223E0
1.757566097E0,1.373108268E0,-1.649287529E-2,-1.672194339E-2,1.373309125E0
1.760074014E0,1.379827619E0,-1.710372418E-2,-1.611109637E-2,1.380027667E0
1.762581983E0,1.384103537E0,-1.649287529E-2,-1.611109637E-2,1.384295555E0
1.765089899E0,1.386546969E0,-1.466033421E-2,-1.733279042E-2,1.386732797E0
1.767597816E0,1.390212059E0,-1.649287529E-2,-1.733279042E-2,1.390417926E0
1.770105785E0,1.396931291E0,-1.710372418E-2,-1.611109637E-2,1.397128890E0
1.772613701E0,1.399374723E0,-2.076880634E-2,-1.855448633E-2,1.399651824E0
1.775121670E0,1.402505279E0,-1.710372418E-2,-1.611109637E-2,1.402702093E0
1.777629587E0,1.408613801E0,-1.404948719E-2,-1.488940232E-2,1.408762550E0
1.780137503E0,1.423884988E0,-1.832541823E-2,-1.611109637E-2,1.424094044E0
1.782645472E0,1.437323570E0,-1.649287529E-2,-1.672194339E-2,1.437515455E0
1.785153389E0,1.447708011E0,-1.832541823E-2,-1.550024934E-2,1.447906959E0
1.787661306E0,1.454427361E0,-1.466033421E-2,-1.366770733E-2,1.454565461E0
1.790169274E0,1.466033459E0,-2.015795931E-2,-1.733279042E-2,1.466274487E0
1.792677191E0,1.478861213E0,-1.893626526E-2,-2.160872146E-2,1.479140293E0
1.795185108E0,1.489856482E0,-2.260134928E-2,-1.977618039E-2,1.490159137E0
1.797693076E0,1.501462579E0,-2.260134928E-2,-1.855448633E-2,1.501747304E0
1.800200993E0,1.511236072E0,-1.588202827E-2,-1.794363745E-2,1.511426041E0
1.802708962E0,1.521009684E0,-2.199050039E-2,-1.733279042E-2,1.521267388E0
1.805216878E0,1.527118206E0,-1.832541823E-2,-1.794363745E-2,1.527333562E0
1.807724795E0,1.535059214E0,-1.527118124E-2,-1.977618039E-2,1.535262549E0
1.810232764E0,1.544832706E0,-1.893626526E-2,-1.672194339E-2,1.545039254E0
1.812740681E0,1.551552057E0,-1.832541823E-2,-1.855448633E-2,1.551771206E0
1.815248649E0,1.557049632E0,-1.649287529E-2,-1.672194339E-2,1.557226764E0
1.817756566E0,1.560714722E0,-1.954711229E-2,-1.916533336E-2,1.560954785E0
1.820264483E0,1.566212416E0,-1.404948719E-2,-1.794363745E-2,1.566378209E0
1.822772451E0,1.565601468E0,-1.710372418E-2,-1.855448633E-2,1.565804829E0
1.825280368E0,1.557660460E0,-1.893626526E-2,-2.038702741E-2,1.557908959E0
1.827788285E0,1.546665311E0,-1.710372418E-2,-1.977618039E-2,1.546886298E0
1.830296253E0,1.537502527E0,-1.771457121E-2,-1.855448633E-2,1.537716520E0
1.832804170E0,1.530783176E0,-1.954711229E-2,-1.733279042E-2,1.531006090E0
1.835312139E0,1.522842169E0,-2.015795931E-2,-1.550024934E-2,1.523054455E0
1.837820056E0,1.512457848E0,-1.893626526E-2,-1.550024934E-2,1.512655804E0
1.840327972E0,1.502073407E0,-1.954711229E-2,-1.855448633E-2,1.502315173E0
1.842835941E0,1.489245653E0,-1.343864016E-2,-1.427855436E-2,1.489374731E0
1.845343858E0,1.478250384E0,-1.771457121E-2,-1.855448633E-2,1.478472953E0
1.847851774E0,1.466644287E0,-1.832541823E-2,-1.611109637E-2,1.466847249E0
1.850359743E0,1.452594757E0,-1.466033421E-2,-1.611109637E-2,1.452758074E0
1.852867660E0,1.439767003E0,-1.649287529E-2,-1.733279042E-2,1.439965786E0
1.855375628E0,1.427550077E0,-1.588202827E-2,-1.855448633E-2,1.427758989E0
1.857883545E0,1.415943980E0,-1.710372418E-2,-1.977618039E-2,1.416185366E0
1.860391462E0,1.406170368E0,-1.832541823E-2,-1.733279042E-2,1.406396584E0
1.862899431E0,1.393266201E0,-1.588202827E-2,-1.550024934E-2,1.393442932E0
1.865407347E0,1.381049275E0,-1.404948719E-2,-1.550024934E-2,1.381207713E0
1.867915316E0,1.368832350E0,-1.649287529E-2,-1.427855436E-2,1.369006170E0
1.870423233E0,1.356615424E0,-1.832541823E-2,-1.427855436E-2,1.356814323E0
1.872931149E0,1.345620155E0,-1.588202827E-2,-1.550024934E-2,1.345803143E0
1.875439118E0,1.335235715E0,-1.893626526E-2,-1.611109637E-2,1.335467171E0
1.877947035E0,1.320575476E0,-1.466033421E-2,-1.794363745E-2,1.320778742E0
1.880454951E0,1.307136774E0,-1.710372418E-2,-1.611109637E-2,1.307347946E0
1.882962920E0,1.291865587E0,-1.832541823E-2,-1.611109637E-2,1.292096004E0
1.885470837E0,1.272929311E0,-1.160609815E-2,-1.550024934E-2,1.273076584E0
1.887978806E0,1.252771378E0,-1.710372418E-2,-1.550024934E-2,1.252984006E0
1.890486722E0,1.231391668E0,-1.282779220E-2,-1.427855436E-2,1.231541258E0
1.892994639E0,1.210012078E0,-1.221694518E-2,-1.550024934E-2,1.210173021E0
1.895502608E0,1.186189055E0,-9.162709117E-3,-1.794363745E-2,1.186360150E0
1.898010524E0,1.159922600E0,-1.588202827E-2,-1.366770733E-2,1.160111841E0
1.900518441E0,1.134877801E0,-1.466033421E-2,-1.427855436E-2,1.135062300E0
1.903026410E0,1.105557203E0,-1.282779220E-2,-1.427855436E-2,1.105723817E0
1.905534326E0,1.079290748E0,-1.649287529E-2,-1.061347127E-2,1.079468934E0
1.908042295E0,1.051802635E0,-1.099525020E-2,-1.244601328E-2,1.051933735E0
1.910550212E0,1.021871090E0,-1.221694518E-2,-1.366770733E-2,1.022035510E0
1.913058128E0,9.937721491E-1,-1.038440317E-2,-1.427855436E-2,9.939289699E-1
1.915566097E0,9.675056934E-1,-1.038440317E-2,-1.183516532E-2,9.676338015E-1
1.918074014E0,9.455152154E-1,-1.710372418E-2,-1.061347127E-2,9.457294569E-1
1.920581983E0,9.180271029E-1,-6.719320081E-3,-1.000262424E-2,9.181061831E-1
1.923089899E0,8.990908265E-1,-1.099525020E-2,-9.391776286E-3,8.992071037E-1
1.925597816E0,8.801545501E-1,-1.160609815E-2,-1.061347127E-2,8.802950524E-1
1.928105785E0,8.636616468E-1,-7.330167107E-3,-8.780929260E-3,8.637373885E-1
1.930613701E0,8.483904600E-1,-4.275931045E-3,-8.780929260E-3,8.484466754E-1
1.933121618E0,8.337301612E-1,-1.160609815E-2,-1.061347127E-2,8.338784857E-1
1.935629587E0,8.184589744E-1,-1.038440317E-2,-1.000262424E-2,8.185859644E-1
1.938137503E0,8.037986159E-1,-4.275931045E-3,-1.061347127E-2,8.038800559E-1
1.940645472E0,7.903599739E-1,-9.773556143E-3,-1.183516532E-2,7.905090018E-1
1.943153389E0,7.738671303E-1,-5.497625098E-3,-1.061347127E-2,7.739594337E-1
1.945661306E0,7.585959435E-1,-4.886778072E-3,-1.000262424E-2,7.586776249E-1
1.948169274E0,7.421030402E-1,-4.886778072E-3,-1.000262424E-2,7.421865368E-1
1.950677191E0,7.243884802E-1,-7.330167107E-3,-1.000262424E-2,7.244946198E-1
1.953185108E0,7.048413754E-1,-6.719320081E-3,-8.780929260E-3,7.049280945E-1
1.955693076E0,6.907919049E-1,-1.221694518E-2,-6.337540224E-3,6.909289935E-1
1.958200993E0,6.706339121E-1,-1.832541777E-3,-8.780929260E-3,6.706938996E-1
1.960708962E0,6.559736133E-1,-6.108472589E-3,-1.061347127E-2,6.560879061E-1
1.963216878E0,6.419241428E-1,-3.054236295E-3,-8.170082234E-3,6.419833984E-1
1.965724795E0,6.339830756E-1,-6.719320081E-3,-7.559234742E-3,6.340637440E-1
1.968232764E0,6.260420680E-1,-9.162709117E-3,-8.170082234E-3,6.261624201E-1
1.970740681E0,6.181010604E-1,-8.551862091E-3,-6.948387716E-3,6.181992683E-1
1.973248597E0,6.138251424E-1,-7.330167107E-3,-1.000262424E-2,6.139503964E-1
1.975756566E0,6.083275080E-1,-6.719320081E-3,-8.170082234E-3,6.084194741E-1
1.978264483E0,6.071057916E-1,-6.108472589E-3,-8.780929260E-3,6.072000167E-1
1.980772451E0,6.058841348E-1,-6.108472589E-3,-8.780929260E-3,6.059785499E-1
1.983280368E0,6.064949632E-1,-7.330167107E-3,-6.337540224E-3,6.065723668E-1
1.985788285E0,6.089383364E-1,-5.497625098E-3,-5.115845706E-3,6.089846412E-1
1.988296253E0,6.132143140E-1,-6.719320081E-3,-5.726693198E-3,6.132778646E-1
1.990804170E0,6.168794036E-1,-4.275931045E-3,-9.391776286E-3,6.169657102E-1
1.993312087E0,6.187118888E-1,-3.665083554E-3,-8.780929260E-3,6.187850506E-1
1.995820056E0,6.235986948E-1,-3.054236295E-3,-9.391776286E-3,6.236768923E-1
1.998327972E0,6.260420680E-1,-2.443389036E-3,-6.948387716E-3,6.260853945E-1
2.000835941E0,6.315397024E-1,-5.497625098E-3,-7.559234742E-3,6.316088676E-1
2.003343858E0,6.339830756E-1,-7.941014133E-3,-7.559234742E-3,6.340778674E-1
2.005851774E0,6.309288740E-1,-4.886778072E-3,-8.170082234E-3,6.310006933E-1
2.008359743E0,6.303179860E-1,-9.162709117E-3,-1.061347127E-2,6.304739206E-1
2.010867660E0,6.272637844E-1,-6.108472589E-3,-1.000262424E-2,6.273732710E-1
2.013375576E0,6.211553216E-1,-6.108472589E-4,-1.122431830E-2,6.212570257E-1
2.015883545E0,6.156576872E-1,-4.275931045E-3,-9.391776286E-3,6.157441651E-1
2.018391462E0,6.064949632E-1,-0.000000000E0,-5.726693198E-3,6.065219991E-1
2.020899431E0,6.003865004E-1,-7.330167107E-3,-6.337540224E-3,6.004646914E-1
2.023407347E0,5.924454927E-1,-1.038440317E-2,-7.559234742E-3,5.925847110E-1
2.025915264E0,5.832827687E-1,-5.497625098E-3,-7.559234742E-3,5.833576555E-1
2.028423233E0,5.747309327E-1,-4.275931045E-3,-8.170082234E-3,5.748049050E-1
2.030931149E0,5.649573803E-1,-4.886778072E-3,-6.948387716E-3,5.650212405E-1
2.033439118E0,5.521295667E-1,-1.221694518E-3,-8.170082234E-3,5.521913628E-1
2.035947035E0,5.417451859E-1,-6.108472589E-3,-8.780929260E-3,5.418507770E-1
2.038454951E0,5.307499170E-1,-6.108472589E-3,-6.948387716E-3,5.308305454E-1
2.040962920E0,5.228089094E-1,-6.719320081E-3,-6.948387716E-3,5.228982550E-1
2.043470837E0,5.130353570E-1,-4.886778072E-3,-6.337540224E-3,5.130977709E-1
2.045978753E0,5.044834614E-1,-1.832541777E-3,-5.726693198E-3,5.045192920E-1
2.048486722E0,5.008183718E-1,-3.054236295E-3,-6.337540224E-3,5.008677812E-1
2.050994639E0,4.989858568E-1,-4.886778072E-3,-5.115845706E-3,4.990360085E-1
2.053502608E0,4.953207672E-1,-1.832541777E-3,-3.894151188E-3,4.953394644E-1
2.056010524E0,4.959316254E-1,-7.941014133E-3,-3.894151188E-3,4.960104849E-1
2.058518441E0,4.959316254E-1,-4.275931045E-3,-6.337540224E-3,4.959905493E-1
2.061026410E0,4.971533120E-1,-7.941014133E-3,-6.948387716E-3,4.972652767E-1
2.063534326E0,4.965424538E-1,-6.719320081E-3,-5.726693198E-3,4.966209346E-1
2.066042243E0,4.983749986E-1,-6.719320081E-3,-7.559234742E-3,4.984776128E-1
2.068550212E0,4.971533120E-1,-3.054236295E-3,-8.170082234E-3,4.972298203E-1
2.071058128E0,5.026509166E-1,-7.941014133E-3,-7.559234742E-3,5.027704702E-1
2.073566097E0,5.044834614E-1,-3.665083554E-3,-6.948387716E-3,5.045446221E-1
2.076074014E0,5.093702674E-1,-4.275931045E-3,-8.170082234E-3,5.094537301E-1
2.078581931E0,5.136461854E-1,-6.719320081E-3,-8.170082234E-3,5.137551005E-1
2.081089899E0,5.173112750E-1,-1.832541777E-3,-7.559234742E-3,5.173697474E-1
2.083597816E0,5.252522826E-1,-6.719320081E-3,-7.559234742E-3,5.253496471E-1
2.086105733E0,5.325824618E-1,-5.497625098E-3,-5.726693198E-3,5.326416221E-1
2.088613701E0,5.393017530E-1,-5.497625098E-3,-5.726693198E-3,5.393601763E-1
2.091121618E0,5.466319323E-1,-4.886778072E-3,-2.672456671E-3,5.466603077E-1
2.093629587E0,5.551838279E-1,-4.886778072E-3,-6.948387716E-3,5.552488122E-1
2.096137503E0,5.606814027E-1,-4.275931045E-3,-5.726693198E-3,5.607269513E-1
2.098645420E0,5.643464923E-1,-4.275931045E-3,-7.559234742E-3,5.644133140E-1
2.101153389E0,5.674007535E-1,-4.886778072E-3,-7.559234742E-3,5.674721471E-1
2.103661306E0,5.692332983E-1,-6.719320081E-3,-6.948387716E-3,5.693153583E-1
2.106169222E0,5.710658431E-1,-9.773556143E-3,-5.726693198E-3,5.711781811E-1
2.108677191E0,5.698441267E-1,-4.886778072E-3,-6.948387716E-3,5.699074394E-1
2.111185108E0,5.649573803E-1,-4.886778072E-3,-6.948387716E-3,5.650212405E-1
2.113693076E0,5.576272011E-1,-5.497625098E-3,-1.000262424E-2,5.577440020E-1
2.116200993E0,5.490753055E-1,-3.054236295E-3,-1.000262424E-2,5.491749010E-1
2.118708910E0,5.386909246E-1,-8.551862091E-3,-8.170082234E-3,5.388207465E-1
2.121216878E0,5.246414542E-1,-6.719320081E-3,-6.948387716E-3,5.247304878E-1
2.123724795E0,5.032618046E-1,-6.719320081E-3,-5.726693198E-3,5.033392377E-1
2.126232764E0,4.806604385E-1,-6.719320081E-3,-6.948387716E-3,4.807576172E-1
2.128740681E0,4.531722963E-1,-5.497625098E-3,-6.337540224E-3,4.532499514E-1
2.131248597E0,4.244624972E-1,-4.275931045E-3,-7.559234742E-3,4.245513363E-1
2.133756566E0,4.000285864E-1,-4.275931045E-3,-5.726693198E-3,4.000924250E-1
2.136264483E0,3.755947053E-1,-5.497625098E-3,-3.894151188E-3,3.756551224E-1
2.138772399E0,3.536041975E-1,-7.330167107E-3,-2.061609412E-3,3.536861746E-1
2.141280368E0,3.365004957E-1,-4.886778072E-3,-2.672456671E-3,3.365465885E-1
2.143788285E0,3.230618536E-1,-7.941014133E-3,-3.283303929E-3,3.231761146E-1
2.146296201E0,3.291703165E-1,-1.160609815E-2,-4.504998680E-3,3.294056675E-1
2.148804170E0,3.536041975E-1,-1.404948719E-2,-4.504998680E-3,3.539118698E-1
2.151312087E0,3.890333474E-1,-1.527118124E-2,-6.337540224E-3,3.893845384E-1
2.153820056E0,4.073587656E-1,-9.162709117E-3,-7.559234742E-3,4.075319143E-1
2.156327972E0,4.085804522E-1,-0.000000000E0,-7.559234742E-3,4.086503737E-1
2.158835889E0,4.085804522E-1,1.099525020E-2,-6.948387716E-3,4.087874283E-1
2.161343858E0,4.244624972E-1,8.551862091E-3,-5.115845706E-3,4.245794599E-1
2.163851774E0,4.476746917E-1,-3.665083554E-3,-5.115845706E-3,4.477189233E-1
2.166359743E0,4.653892517E-1,-1.221694518E-2,-5.726693198E-3,4.655847983E-1
2.168867660E0,4.769953489E-1,-1.221694518E-2,-5.726693198E-3,4.771861394E-1
2.171375576E0,4.886014462E-1,-1.404948719E-2,-5.115845706E-3,4.888301680E-1
2.173883545E0,5.014292598E-1,-6.719320081E-3,-8.780929260E-3,5.015511505E-1
2.176391462E0,5.160895586E-1,1.221694518E-3,-5.726693198E-3,5.161227761E-1
2.178899378E0,5.289173722E-1,1.832541777E-3,-6.948387716E-3,5.289661851E-1
2.181407347E0,5.435777307E-1,3.054236295E-3,-6.948387716E-3,5.436307181E-1
2.183915264E0,5.521295667E-1,-2.443389036E-3,-5.726693198E-3,5.521646707E-1
2.186423233E0,5.582380295E-1,-9.162709117E-3,-6.337540224E-3,5.583491893E-1
2.188931149E0,5.649573803E-1,-1.282779220E-2,-8.170082234E-3,5.651620511E-1
2.191439066E0,5.649573803E-1,-1.099525020E-2,-5.726693198E-3,5.650933835E-1
2.193947035E0,5.643464923E-1,-1.221694518E-3,-5.726693198E-3,5.643768696E-1
2.196454951E0,5.606814027E-1,-2.443389036E-3,-8.170082234E-3,5.607462489E-1
2.198962868E0,5.570163727E-1,1.832541777E-3,-5.726693198E-3,5.570488243E-1
2.201470837E0,5.545729399E-1,-1.832541777E-3,-6.948387716E-3,5.546194947E-1
2.203978753E0,5.466319323E-1,-9.773556143E-3,-6.337540224E-3,5.467560299E-1
2.206486722E0,5.380800962E-1,-1.038440317E-2,-7.559234742E-3,5.382333767E-1
2.208994639E0,5.270848274E-1,-7.941014133E-3,-6.948387716E-3,5.271904353E-1
2.211502556E0,5.167004466E-1,-1.160609815E-2,-8.170082234E-3,5.168953504E-1
2.214010524E0,5.038726330E-1,-4.275931045E-3,-6.948387716E-3,5.039386807E-1
2.216518441E0,4.940990806E-1,-2.443389036E-3,-6.337540224E-3,4.941457639E-1
2.219026410E0,4.818821251E-1,-2.443389036E-3,-7.559234742E-3,4.819476058E-1
2.221534326E0,4.733302593E-1,-3.054236295E-3,-7.559234742E-3,4.734004698E-1
2.224042243E0,4.678326547E-1,-1.038440317E-2,-6.337540224E-3,4.679908045E-1
2.226550212E0,4.635567069E-1,-6.719320081E-3,-7.559234742E-3,4.636670269E-1
2.229058128E0,4.568373859E-1,-6.719320081E-3,-5.115845706E-3,4.569154389E-1
2.231566045E0,4.525614679E-1,-2.443389036E-3,-8.780929260E-3,4.526532415E-1
2.234074014E0,4.452312887E-1,-4.886778072E-3,-8.780929260E-3,4.453446819E-1
2.236581931E0,4.385119677E-1,1.832541777E-3,-5.115845706E-3,4.385456372E-1
2.239089899E0,4.317926466E-1,-6.108472589E-4,-5.115845706E-3,4.318233837E-1
2.241597816E0,4.256841838E-1,-4.886778072E-3,-5.115845706E-3,4.257429704E-1
2.244105733E0,4.244624972E-1,-6.719320081E-3,-2.061609412E-3,4.245206839E-1
2.246613701E0,4.293492734E-1,-3.665083554E-3,-3.894151188E-3,4.293825752E-1
2.249121618E0,4.311818182E-1,6.108472589E-4,-9.391776286E-3,4.312845221E-1
2.251629587E0,4.281275868E-1,-1.221694518E-3,-6.948387716E-3,4.281857112E-1
2.254137503E0,4.238516390E-1,-6.108472589E-4,-5.726693198E-3,4.238907643E-1
2.256645420E0,4.262950420E-1,-1.832541777E-3,-7.559234742E-3,4.263659967E-1
2.259153389E0,4.336251915E-1,-6.719320081E-3,-3.894151188E-3,4.336947317E-1
2.261661306E0,4.391228259E-1,-6.719320081E-3,-5.115845706E-3,4.392040270E-1
2.264169222E0,4.482855201E-1,-5.497625098E-3,-3.894151188E-3,4.483361415E-1
2.266677191E0,4.598916173E-1,-3.054236295E-3,-6.337540224E-3,4.599454233E-1
2.269185108E0,4.708868861E-1,-2.443389036E-3,-6.948387716E-3,4.709444869E-1
2.271693024E0,4.837146699E-1,-4.275931045E-3,-7.559234742E-3,4.837926286E-1
2.274200993E0,4.983749986E-1,-7.330167107E-3,-5.726693198E-3,4.984617995E-1
2.276708910E0,5.130353570E-1,-6.719320081E-3,-5.115845706E-3,5.131048613E-1
2.279216878E0,5.283065438E-1,-3.665083554E-3,-6.948387716E-3,5.283649470E-1
2.281724795E0,5.472427607E-1,-5.497625098E-3,-6.948387716E-3,5.473144828E-1
2.284232712E0,5.643464923E-1,-9.162709117E-3,-4.504998680E-3,5.644388484E-1
2.286740681E0,5.838935971E-1,-6.108472589E-3,-3.894151188E-3,5.839385333E-1
2.289248597E0,5.991647840E-1,-1.221694518E-3,-9.391776286E-3,5.992396318E-1
2.291756566E0,6.162685156E-1,-4.275931045E-3,-8.780929260E-3,6.163459026E-1
2.294264483E0,6.358156204E-1,-6.108472589E-3,-6.948387716E-3,6.358829269E-1
2.296772399E0,6.523085237E-1,-1.221694518E-3,-1.183516532E-2,6.524170244E-1
2.299280368E0,6.614712477E-1,-9.162709117E-3,-1.000262424E-2,6.616103228E-1
2.301788285E0,6.694122553E-1,-6.719320081E-3,-5.115845706E-3,6.694655246E-1
2.304296201E0,6.736881733E-1,-6.108472589E-3,-5.726693198E-3,6.737402046E-1
2.306804170E0,6.779640913E-1,-7.941014133E-3,-8.780929260E-3,6.780674550E-1
2.309312087E0,6.791858077E-1,-7.941014133E-3,-8.170082234E-3,6.792813639E-1
2.311820003E0,6.749098897E-1,3.054236295E-3,-7.559234742E-3,6.749591318E-1
2.314327972E0,6.742990017E-1,1.832541777E-3,-1.122431830E-2,6.743949045E-1
2.316835889E0,6.730773449E-1,-1.221694518E-3,-1.244601328E-2,6.731935145E-1
2.319343858E0,6.718556285E-1,-9.162709117E-3,-1.061347127E-2,6.720019245E-1
2.321851774E0,6.688013673E-1,-1.404948719E-2,-4.504998680E-3,6.689640887E-1
2.324359691E0,6.626929045E-1,-1.893626526E-2,-6.337540224E-3,6.629936894E-1
2.326867660E0,6.602495313E-1,-1.832541823E-2,-6.948387716E-3,6.605403429E-1
2.329375576E0,6.553627253E-1,-9.773556143E-3,-8.780929260E-3,6.554944155E-1
2.331883493E0,6.535302401E-1,-6.719320081E-3,-8.780929260E-3,6.536237669E-1
2.334391462E0,6.559736133E-1,-3.665083554E-3,-1.183516532E-2,6.560906075E-1
2.336899378E0,6.523085237E-1,-1.832541777E-3,-1.000262424E-2,6.523877840E-1
2.339407347E0,6.541410685E-1,-1.649287529E-2,-5.726693198E-3,6.543740119E-1
2.341915264E0,6.529193521E-1,-1.160609815E-2,-5.726693198E-3,6.530476069E-1
2.344423181E0,6.516976953E-1,-1.832541823E-2,-1.061347127E-2,6.520416802E-1
2.346931149E0,6.468108892E-1,-7.941014133E-3,-1.061347127E-2,6.469466994E-1
2.349439066E0,6.358156204E-1,6.108472589E-4,-1.244601328E-2,6.359377167E-1
2.351947035E0,6.266529560E-1,-4.275931045E-3,-1.488940232E-2,6.268444027E-1
2.354454951E0,6.150468588E-1,-1.832541777E-3,-9.391776286E-3,6.151212906E-1
2.356962868E0,5.973322392E-1,-9.773556143E-3,-2.672456671E-3,5.974181688E-1
2.359470837E0,5.747309327E-1,-1.771457121E-2,-1.450762269E-3,5.750057006E-1
2.361978753E0,5.502970219E-1,-6.719320081E-3,-8.399150101E-4,5.503386839E-1
2.364486670E0,5.252522826E-1,-8.551862091E-3,-4.504998680E-3,5.253412127E-1
2.366994639E0,4.971533120E-1,1.832541777E-3,-8.780929260E-3,4.972342290E-1
2.369502556E0,4.666109383E-1,7.941014133E-3,-1.183516532E-2,4.668285537E-1
2.372010524E0,4.360685945E-1,1.221694518E-3,-1.000262424E-2,4.361850113E-1
2.374518441E0,4.018611312E-1,-1.221694518E-3,-6.337540224E-3,4.019129579E-1
2.377026358E0,3.652102947E-1,-6.719320081E-3,-9.391776286E-3,3.653928216E-1
2.379534326E0,3.279486299E-1,-7.330167107E-3,-3.894151188E-3,3.280536535E-1
2.382042243E0,2.870218456E-1,-4.275931045E-3,-1.450762269E-3,2.870573604E-1
2.384550160E0,2.503710091E-1,-3.054236295E-3,-1.450762269E-3,2.503938403E-1
2.387058128E0,2.076117098E-1,7.330167107E-3,-2.290677221E-4,2.077411993E-1
2.389566045E0,1.642415524E-1,7.941014133E-3,2.214321401E-3,1.644483215E-1
2.392074014E0,1.257581860E-1,9.773556143E-3,5.879404955E-3,1.262743487E-1
2.394581931E0,8.971819282E-2,6.108472589E-3,4.046862945E-3,9.001691318E-2
2.397089847E0,5.306735635E-2,4.886778072E-3,1.603474026E-3,5.331600171E-2
2.399597816E0,1.885990985E-2,3.054236295E-3,-1.450762269E-3,1.916061768E-2
2.402105733E0,-1.290414855E-2,5.497625098E-3,-3.894151188E-3,1.455696895E-2
2.404613649E0,-4.222481698E-2,7.941014133E-3,-8.170082234E-3,4.373494161E-2
2.407121618E0,-7.459972054E-2,7.330167107E-3,-4.504998680E-3,7.509423858E-2
2.409629535E0,-1.039203927E-1,7.330167107E-3,-2.290677221E-4,1.041788454E-1
2.412137503E0,-1.344627589E-1,8.551862091E-3,2.214321401E-3,1.347526293E-1
2.414645420E0,-1.619508862E-1,4.275931045E-3,5.268557463E-3,1.620929697E-1
2.417153337E0,-1.894390136E-1,2.443389036E-3,5.268557463E-3,1.895280130E-1
2.419661306E0,-2.132620513E-1,3.054236295E-3,4.046862945E-3,2.133223101E-1
2.422169222E0,-2.321983129E-1,6.108472589E-3,2.825168660E-3,2.322958276E-1
2.424677139E0,-2.535779774E-1,2.443389036E-3,2.825168660E-3,2.536054857E-1
2.427185108E0,-2.694599926E-1,3.665083554E-3,3.436015919E-3,2.695068212E-1
2.429693024E0,-2.847311795E-1,6.108472589E-3,2.825168660E-3,2.848107083E-1
2.432200993E0,-2.969481349E-1,1.832541777E-3,9.926267667E-4,2.969554484E-1
2.434708910E0,-3.067216873E-1,2.443389036E-3,1.603474026E-3,3.067356105E-1
2.437216826E0,-3.140518367E-1,3.665083554E-3,1.603474026E-3,3.140773155E-1
2.439724795E0,-3.213820159E-1,6.108472589E-4,5.268557463E-3,3.214257784E-1
2.442232712E0,-3.274904788E-1,3.054236295E-3,4.657710437E-3,3.275378395E-1
2.444740628E0,-3.305447102E-1,4.886778072E-3,5.268557463E-3,3.306228118E-1
2.447248597E0,-3.317664266E-1,1.038440317E-2,8.933641016E-3,3.320491041E-1
2.449756514E0,-3.317664266E-1,7.330167107E-3,7.101099472E-3,3.319233628E-1
2.452264483E0,-3.262687922E-1,4.886778072E-3,4.657710437E-3,3.263386272E-1
2.454772399E0,-3.195494711E-1,6.719320081E-3,1.603474026E-3,3.196241307E-1
2.457280316E0,-3.146626949E-1,3.054236295E-3,-8.399150101E-4,3.146786383E-1
2.459788285E0,-3.103867769E-1,6.108472589E-3,-1.450762269E-3,3.104502689E-1
2.462296201E0,-3.018349111E-1,6.108472589E-4,-2.290677221E-4,3.018356161E-1
2.464804170E0,-2.969481349E-1,1.221694518E-3,2.825168660E-3,2.969640869E-1
2.467312087E0,-2.920613587E-1,4.275931045E-3,2.825168660E-3,2.921063204E-1
2.469820003E0,-2.859528661E-1,2.443389036E-3,2.214321401E-3,2.859718780E-1
2.472327972E0,-2.822877765E-1,7.941014133E-3,2.214321401E-3,2.824081296E-1
2.474835889E0,-2.774010003E-1,9.773556143E-3,3.436015919E-3,2.775943867E-1
2.477343806E0,-2.725142241E-1,8.551862091E-3,6.490251981E-3,2.727256131E-1
2.479851774E0,-2.682383060E-1,9.162709117E-3,4.657710437E-3,2.684351660E-1
2.482359691E0,-2.645732164E-1,1.160609815E-2,1.603474026E-3,2.648325122E-1
2.484867608E0,-2.615189850E-1,7.330167107E-3,3.817795368E-4,2.616219728E-1
2.487375576E0,-2.566322088E-1,1.099525020E-2,9.926267667E-4,2.568695611E-1
2.489883493E0,-2.541888058E-1,1.160609815E-2,-8.399150101E-4,2.544550176E-1
2.492391462E0,-2.468586415E-1,4.886778072E-3,1.603474026E-3,2.469122124E-1
2.494899378E0,-2.419718653E-1,9.773556143E-3,4.657710437E-3,2.422139555E-1
2.497407295E0,-2.334200144E-1,6.108472589E-3,9.926267667E-4,2.335020382E-1
2.499915264E0,-2.285332382E-1,4.275931045E-3,3.436015919E-3,2.285990611E-1
2.502423181E0,-2.212030590E-1,1.282779220E-2,4.046862945E-3,2.216116483E-1
2.504931097E0,-2.138728946E-1,9.162709117E-3,3.817795368E-4,2.140694188E-1
2.507439066E0,-2.034884989E-1,8.551862091E-3,3.436015919E-3,2.036971029E-1
2.509946983E0,-1.955474764E-1,4.275931045E-3,2.825168660E-3,1.956146229E-1
2.512454951E0,-1.839413792E-1,4.275931045E-3,-2.290677221E-4,1.839912146E-1
2.514962868E0,-1.760003716E-1,7.330167107E-3,-1.450762269E-3,1.761589250E-1
2.517470785E0,-1.656159610E-1,8.551862091E-3,3.817795368E-4,1.658370484E-1
2.519978753E0,-1.521773189E-1,4.886778072E-3,-3.894151188E-3,1.523055528E-1
2.522486670E0,-1.430146098E-1,6.719320081E-3,-1.450762269E-3,1.431797213E-1
2.524994639E0,-1.320193708E-1,4.275931045E-3,-8.399150101E-4,1.320912689E-1
2.527502556E0,-1.167481840E-1,2.443389036E-3,2.214321401E-3,1.167947423E-1
2.530010472E0,-1.057529300E-1,1.832541777E-3,3.817795368E-4,1.057694955E-1
2.532518441E0,-9.109259397E-2,3.054236295E-3,2.825168660E-3,9.118755734E-2
2.535026358E0,-7.643226534E-2,-6.108472589E-4,1.603474026E-3,7.645152352E-2
2.537534274E0,-6.421531737E-2,3.665083554E-3,9.926267667E-4,6.432748347E-2
2.540042243E0,-5.077667907E-2,4.886778072E-3,9.926267667E-4,5.102094712E-2
2.542550160E0,-3.611634299E-2,1.832541777E-3,-2.290677221E-4,3.616353014E-2
2.545058076E0,-2.145601064E-2,-0.000000000E0,-2.290677221E-4,2.145723339E-2
2.547566045E0,-7.406522986E-3,4.275931045E-3,-1.450762269E-3,8.674380681E-3
2.550073962E0,6.642963737E-3,-1.221694518E-3,-1.450762269E-3,6.908416307E-3
2.552581931E0,2.191414498E-2,1.221694518E-3,-2.061609412E-3,2.204478444E-2
2.555089847E0,3.657447919E-2,-0.000000000E0,-4.504998680E-3,3.685088250E-2
2.557597764E0,5.123481527E-2,1.221694518E-3,-2.061609412E-3,5.129082829E-2
2.560105733E0,6.528430432E-2,6.108472589E-4,-2.061609412E-3,6.531970421E-2
2.562613649E0,8.360971510E-2,-4.275931045E-3,-8.399150101E-4,8.372319573E-2
2.565121618E0,9.888090193E-2,-4.886778072E-3,3.817795368E-4,9.900231877E-2
2.567629535E0,1.165954694E-1,-1.832541777E-3,-2.061609412E-3,1.166280924E-1
2.570137451E0,1.355317384E-1,-0.000000000E0,-2.672456671E-3,1.355580840E-1
2.572645420E0,1.538571566E-1,6.108472589E-4,-4.504998680E-3,1.539243087E-1
2.575153337E0,1.734042615E-1,6.108472589E-4,-3.283303929E-3,1.734364181E-1
2.577661253E0,1.898971349E-1,5.497625098E-3,-8.399150101E-4,1.899785545E-1
2.580169222E0,2.070008665E-1,-0.000000000E0,-3.894151188E-3,2.070374922E-1
2.582677139E0,2.228828967E-1,1.832541777E-3,-2.672456671E-3,2.229064509E-1
2.585185108E0,2.369323820E-1,2.443389036E-3,-4.504998680E-3,2.369878031E-1
2.587693024E0,2.522035539E-1,-6.108472589E-4,-5.115845706E-3,2.522561746E-1
2.590200941E0,2.668638825E-1,2.443389036E-3,-4.504998680E-3,2.669130888E-1
2.592708910E0,2.796916962E-1,4.275931045E-3,-4.504998680E-3,2.797606540E-1
2.595216826E0,2.931303382E-1,3.665083554E-3,-3.894151188E-3,2.931791132E-1
2.597724743E0,3.077906668E-1,-0.000000000E0,-4.504998680E-3,3.078236339E-1
2.600232712E0,3.193967640E-1,6.719320081E-3,-6.337540224E-3,3.195302905E-1
2.602740628E0,3.328354061E-1,3.054236295E-3,-5.726693198E-3,3.328986796E-1
2.605248597E0,3.438306451E-1,3.054236295E-3,-5.726693198E-3,3.438918956E-1
2.607756514E0,3.529933691E-1,4.275931045E-3,-4.504998680E-3,3.530480098E-1
2.610264431E0,3.621560633E-1,2.443389036E-3,-5.726693198E-3,3.622095793E-1
2.612772399E0,3.652102947E-1,4.886778072E-3,-6.337540224E-3,3.652979666E-1
2.615280316E0,3.694862425E-1,6.719320081E-3,-6.337540224E-3,3.696016736E-1
2.617788233E0,3.725404739E-1,-1.221694518E-3,-8.170082234E-3,3.726320538E-1
2.620296201E0,3.719296157E-1,2.443389036E-3,-5.726693198E-3,3.719817257E-1
2.622804118E0,3.688753843E-1,-1.221694518E-3,-6.337540224E-3,3.689318448E-1
2.625312087E0,3.633777499E-1,-2.443389036E-3,-5.115845706E-3,3.634219740E-1
2.627820003E0,3.566584289E-1,-2.443389036E-3,-1.450762269E-3,3.566697489E-1
2.630327920E0,3.487174213E-1,2.443389036E-3,-3.894151188E-3,3.487477233E-1
2.632835889E0,3.413872719E-1,-2.443389036E-3,-6.337540224E-3,3.414548344E-1
2.635343806E0,3.297811747E-1,1.832541777E-3,-5.115845706E-3,3.298259439E-1
2.637851722E0,3.200076222E-1,1.832541777E-3,-7.559234742E-3,3.201021377E-1
2.640359691E0,3.077906668E-1,-1.832541777E-3,-5.115845706E-3,3.078386341E-1
2.642867608E0,2.955737114E-1,-3.054236295E-3,-5.115845706E-3,2.956337584E-1
2.645375576E0,2.821350694E-1,-4.275931045E-3,-3.283303929E-3,2.821865713E-1
2.647883493E0,2.717506886E-1,-6.719320081E-3,-3.894151188E-3,2.718616383E-1
2.650391410E0,2.601445615E-1,-0.000000000E0,-3.283303929E-3,2.601652801E-1
2.652899378E0,2.515927255E-1,-0.000000000E0,-5.115845706E-3,2.516447325E-1
2.655407295E0,2.424300015E-1,-6.108472589E-4,-5.115845706E-3,2.424847431E-1
2.657915212E0,2.338781506E-1,-2.443389036E-3,-4.504998680E-3,2.339342952E-1
2.660423181E0,2.253262848E-1,-4.275931045E-3,-4.504998680E-3,2.254118746E-1
2.662931097E0,2.173852623E-1,-5.497625098E-3,-3.283303929E-3,2.174795535E-1
2.665439066E0,2.112767994E-1,-6.719320081E-3,-3.894151188E-3,2.114194874E-1
2.667946983E0,2.039466351E-1,-3.665083554E-3,-2.061609412E-3,2.039899827E-1
2.670454899E0,1.990598440E-1,6.108472589E-4,-2.672456671E-3,1.990787198E-1
2.672962868E0,1.935622245E-1,-1.832541777E-3,-6.337540224E-3,1.936746173E-1
2.675470785E0,1.917296797E-1,-6.108472589E-4,-4.504998680E-3,1.917835713E-1
2.677978701E0,1.886754483E-1,1.221694518E-3,-8.399150101E-4,1.886812730E-1
2.680486670E0,1.856212169E-1,-1.221694518E-3,3.817795368E-4,1.856256298E-1
2.682994587E0,1.843995154E-1,-0.000000000E0,-1.450762269E-3,1.844052222E-1
2.685502556E0,1.795127392E-1,-1.832541777E-3,-3.283303929E-3,1.795521145E-1
2.688010472E0,1.740151197E-1,3.665083554E-3,-3.283303929E-3,1.740846771E-1
2.690518389E0,1.709608734E-1,1.221694518E-3,-3.283303929E-3,1.709967627E-1
2.693026358E0,1.642415524E-1,6.719320081E-3,-2.672456671E-3,1.644006655E-1
2.695534274E0,1.599656194E-1,1.221694518E-3,-2.672456671E-3,1.599926060E-1
2.698042191E0,1.544679999E-1,3.054236295E-3,-2.061609412E-3,1.545119465E-1
2.700550160E0,1.508029103E-1,3.054236295E-3,-2.290677221E-4,1.508340101E-1
2.703058076E0,1.459161341E-1,2.443389036E-3,-3.283303929E-3,1.459735196E-1
2.705566045E0,1.446944475E-1,3.054236295E-3,-2.061609412E-3,1.447413615E-1
2.708073962E0,1.434727460E-1,1.832541777E-3,-2.672456671E-3,1.435093345E-1
2.710581878E0,1.422510594E-1,-6.108472589E-4,-2.672456671E-3,1.422774721E-1
2.713089847E0,1.416402012E-1,4.886778072E-3,-1.450762269E-3,1.417319015E-1
2.715597764E0,1.428619027E-1,3.665083554E-3,-3.894151188E-3,1.429619547E-1
2.718105681E0,1.446944475E-1,-0.000000000E0,-3.283303929E-3,1.447316939E-1
2.720613649E0,1.440836042E-1,3.054236295E-3,-3.894151188E-3,1.441685742E-1
2.723121566E0,1.410293579E-1,1.832541777E-3,-1.450762269E-3,1.410487246E-1
2.725629535E0,1.355317384E-1,-6.108472589E-3,-5.726693198E-3,1.357901343E-1
2.728137451E0,1.275907159E-1,-0.000000000E0,-1.450762269E-3,1.275989635E-1
2.730645368E0,1.208714023E-1,6.108472589E-4,-1.450762269E-3,1.208816518E-1
2.733153337E0,1.141520813E-1,-0.000000000E0,-2.290677221E-4,1.141523111E-1
2.735661253E0,1.056002229E-1,1.221694518E-3,-1.450762269E-3,1.056172540E-1
2.738169170E0,9.460496902E-2,2.443389036E-3,-2.672456671E-3,9.467424327E-2
2.740677139E0,8.727480471E-2,1.221694518E-3,-5.115845706E-3,8.743315133E-2
2.743185056E0,7.750124484E-2,1.832541777E-3,-2.061609412E-3,7.755031525E-2
2.745693024E0,6.467345357E-2,-2.443389036E-3,-2.061609412E-3,6.475242065E-2
2.748200941E0,5.489989743E-2,-1.221694518E-3,-2.290677221E-4,5.491396677E-2
2.750708858E0,4.512634128E-2,-2.443389036E-3,-1.450762269E-3,4.521572225E-2
2.753216826E0,3.535278514E-2,-1.832541777E-3,-2.061609412E-3,3.546022927E-2
2.755724743E0,2.802261710E-2,1.221694518E-3,-2.061609412E-3,2.812489716E-2
2.758232660E0,2.069245093E-2,1.221694518E-3,-8.399150101E-4,2.074549397E-2
2.760740628E0,1.580567285E-2,6.108472589E-4,-2.290677221E-4,1.581913085E-2
2.763248545E0,1.152974181E-2,-0.000000000E0,-2.290677221E-4,1.153201709E-2
2.765756514E0,1.030804776E-2,-6.108472589E-4,2.214321401E-3,1.056088075E-2
2.768264431E0,6.642963737E-3,-2.443389036E-3,2.825168660E-3,7.621069161E-3
2.770772347E0,9.697199799E-3,-1.221694518E-3,-2.290677221E-4,9.776537908E-3
2.773280316E0,7.864658721E-3,3.665083554E-3,-1.450762269E-3,8.797181674E-3
2.775788233E0,7.253811229E-3,1.832541777E-3,-8.399150101E-4,7.528707986E-3
2.778296149E0,8.475505747E-3,-6.108472589E-4,9.926267667E-4,8.555269717E-3
2.780804118E0,5.421269219E-3,3.665083554E-3,3.817795368E-4,6.555055531E-3
2.783312035E0,7.253811229E-3,1.832541777E-3,-1.450762269E-3,7.621069339E-3
2.785820003E0,9.697199799E-3,-4.275931045E-3,-1.450762269E-3,1.069691457E-2
2.788327920E0,4.199574701E-3,5.497625098E-3,-1.450762269E-3,7.068593958E-3
2.790835837E0,2.977880416E-3,2.443389036E-3,-8.399150101E-4,3.942509224E-3
2.793343806E0,1.145338640E-3,6.108472589E-3,9.926267667E-4,6.293690958E-3
2.795851722E0,-1.298050396E-3,6.108472589E-3,-1.450762269E-3,6.411168643E-3
2.798359639E0,-1.908897655E-3,6.108472589E-4,1.603474026E-3,2.566739874E-3
2.800867608E0,-4.963133950E-3,2.443389036E-3,2.214321401E-3,5.958696825E-3
2.803375524E0,-1.908897655E-3,4.886778072E-3,9.926267667E-4,5.339456721E-3
2.805883493E0,-1.298050396E-3,4.275931045E-3,-1.450762269E-3,4.698215863E-3
2.808391410E0,-1.908897655E-3,7.330167107E-3,-1.450762269E-3,7.712324633E-3
2.810899326E0,1.756185899E-3,9.162709117E-3,3.817795368E-4,9.337300621E-3
2.813407295E0,7.253811229E-3,4.275931045E-3,-2.061609412E-3,8.669002077E-3
2.815915212E0,1.091889478E-2,3.054236295E-3,-8.399150101E-4,1.136908439E-2
2.818423128E0,1.702736691E-2,5.497625098E-3,-1.450762269E-3,1.795159649E-2
2.820931097E0,2.191414498E-2,1.832541777E-3,-2.061609412E-3,2.208705940E-2
2.823439014E0,3.046600707E-2,2.443389036E-3,-3.283303929E-3,3.073967829E-2
2.825946983E0,3.901786730E-2,4.886778072E-3,-2.672456671E-3,3.941340626E-2
2.828454899E0,4.818057641E-2,4.275931045E-3,-3.283303929E-3,4.848125013E-2
2.830962816E0,5.673243850E-2,1.221694518E-3,-2.061609412E-3,5.678302871E-2
2.833470785E0,6.223006546E-2,6.108472589E-3,3.817795368E-4,6.253031457E-2
2.835978701E0,7.200361788E-2,1.832541777E-3,-2.061609412E-3,7.205643227E-2
2.838486618E0,8.116632700E-2,-3.054236295E-3,-2.061609412E-3,8.124993065E-2
2.840994587E0,8.910734206E-2,1.832541777E-3,-4.504998680E-3,8.923996656E-2
2.843502503E0,9.704835713E-2,-0.000000000E0,-2.061609412E-3,9.707025216E-2
2.846010420E0,1.049893722E-1,-1.832541777E-3,-4.504998680E-3,1.051019576E-1
2.848518389E0,1.074327603E-1,3.665083554E-3,-1.450762269E-3,1.075050489E-1
2.851026306E0,1.110978425E-1,-0.000000000E0,-3.894151188E-3,1.111660695E-1
2.853534274E0,1.159846261E-1,-4.886778072E-3,-4.504998680E-3,1.161749074E-1
2.856042191E0,1.178171635E-1,1.221694518E-3,-4.504998680E-3,1.179095906E-1
2.858550108E0,1.214822456E-1,-1.221694518E-3,-3.283303929E-3,1.215327471E-1
2.861058076E0,1.220930964E-1,-1.221694518E-3,-6.948387716E-3,1.222967572E-1
2.863565993E0,1.220930964E-1,6.108472589E-4,-3.283303929E-3,1.221387629E-1
2.866073962E0,1.263690293E-1,-4.275931045E-3,-3.283303929E-3,1.264839722E-1
2.868581878E0,1.239256412E-1,-2.443389036E-3,-1.450762269E-3,1.239582164E-1
2.871089795E0,1.239256412E-1,-6.108472589E-4,-3.283303929E-3,1.239706327E-1
2.873597764E0,1.257581860E-1,-2.443389036E-3,-2.672456671E-3,1.258103077E-1
2.876105681E0,1.233147904E-1,4.275931045E-3,-3.283303929E-3,1.234325776E-1
2.878613597E0,1.233147904E-1,1.832541777E-3,-2.290677221E-4,1.233286188E-1
2.881121566E0,1.227039397E-1,-1.832541777E-3,-2.061609412E-3,1.227349390E-1
2.883629483E0,1.214822456E-1,1.832541777E-3,-2.290677221E-4,1.214962826E-1
2.886137451E0,1.227039397E-1,-2.443389036E-3,-2.061609412E-3,1.227455791E-1
2.888645368E0,1.196497083E-1,-1.221694518E-3,-3.283303929E-3,1.197009829E-1
2.891153285E0,1.190388575E-1,1.221694518E-3,-4.504998680E-3,1.191303368E-1
2.893661253E0,1.178171635E-1,1.221694518E-3,-3.894151188E-3,1.178878321E-1
2.896169170E0,1.147629321E-1,1.221694518E-3,-3.283303929E-3,1.148163891E-1
2.898677087E0,1.117086932E-1,6.108472589E-4,-2.061609412E-3,1.117293851E-1
2.901185056E0,1.092653051E-1,3.054236295E-3,-2.672456671E-3,1.093406479E-1
2.903692972E0,1.049893722E-1,2.443389036E-3,-3.283303929E-3,1.050691130E-1
2.906200889E0,9.827005118E-2,1.832541777E-3,-3.283303929E-3,9.834196080E-2
2.908708858E0,9.521581978E-2,6.108472589E-4,-3.283303929E-3,9.527436987E-2
2.911216774E0,8.727480471E-2,3.054236295E-3,9.926267667E-4,8.733387204E-2
2.913724743E0,8.055548370E-2,-3.054236295E-3,-2.061609412E-3,8.063972065E-2
2.916232660E0,7.322531193E-2,6.108472589E-4,3.817795368E-4,7.322885495E-2
2.918740576E0,6.711684167E-2,1.832541777E-3,2.214321401E-3,6.717835861E-2
2.921248545E0,6.039752439E-2,3.054236295E-3,3.817795368E-4,6.047590485E-2
2.923756462E0,5.306735635E-2,-1.221694518E-3,-1.450762269E-3,5.310123877E-2
2.926264431E0,4.573718831E-2,1.832541777E-3,-3.283303929E-3,4.589148819E-2
2.928772347E0,4.146125913E-2,-1.221694518E-3,-2.061609412E-3,4.153045604E-2
2.931280264E0,3.657447919E-2,-1.221694518E-3,9.926267667E-4,3.660833749E-2
2.933788233E0,2.985516004E-2,1.832541777E-3,3.817795368E-4,2.991378522E-2
2.936296149E0,2.191414498E-2,3.054236295E-3,-1.450762269E-3,2.217347110E-2
2.938804066E0,1.824906096E-2,6.108472589E-4,-8.399150101E-4,1.827858904E-2
2.941312035E0,1.091889478E-2,3.054236295E-3,-1.450762269E-3,1.143045641E-2
2.943819951E0,7.253811229E-3,2.443389036E-3,-2.061609412E-3,7.927052459E-3
2.946327868E0,-7.635590737E-5,-1.221694518E-3,-2.061609412E-3,2.397624050E-3
2.948835837E0,-5.573981442E-3,-6.108472589E-4,-2.290677221E-4,5.612029535E-3
2.951343753E0,-9.849912487E-3,3.054236295E-3,2.214321401E-3,1.054762317E-2
2.953851722E0,-1.534753758E-2,-4.275931045E-3,-2.290677221E-4,1.593370541E-2
2.956359639E0,-2.267770469E-2,3.054236295E-3,-8.399150101E-4,2.289786249E-2
2.958867556E0,-2.634278871E-2,3.054236295E-3,-2.290677221E-4,2.652024412E-2
2.961375524E0,-2.939702384E-2,1.832541777E-3,-8.399150101E-4,2.946605975E-2
2.963883441E0,-3.428380191E-2,-6.108472589E-4,3.817795368E-4,3.429136865E-2
2.966391410E0,-3.855973482E-2,1.221694518E-3,-8.399150101E-4,3.858822546E-2
2.968899326E0,-4.405735806E-2,2.443389036E-3,1.603474026E-3,4.415418528E-2
2.971407243E0,-4.588989913E-2,1.221694518E-3,-8.399150101E-4,4.591384146E-2
2.973915212E0,-5.016583204E-2,1.832541777E-3,9.926267667E-4,5.020910497E-2
2.976423128E0,-5.383091420E-2,1.832541777E-3,-2.061609412E-3,5.390153770E-2
2.978931045E0,-5.749600008E-2,4.886778072E-3,-8.399150101E-4,5.770941069E-2
2.981439014E0,-5.871769413E-2,2.443389036E-3,9.926267667E-4,5.877689225E-2
2.983946931E0,-6.360447407E-2,3.665083554E-3,2.214321401E-3,6.374845236E-2
2.986454899E0,-6.482616812E-2,-0.000000000E0,3.817795368E-4,6.482729231E-2
2.988962816E0,-6.849125028E-2,7.330167107E-3,4.046862945E-3,6.900115806E-2
2.991470733E0,-7.032378763E-2,3.054236295E-3,-2.290677221E-4,7.039045346E-2
2.993978701E0,-7.276718318E-2,5.497625098E-3,-2.290677221E-4,7.297492242E-2
2.996486618E0,-7.582141459E-2,1.832541777E-3,-2.061609412E-3,7.587157144E-2
2.998994535E0,-7.765395939E-2,4.275931045E-3,2.825168660E-3,7.782289235E-2
3.001502503E0,-7.887565345E-2,-1.832541777E-3,1.603474026E-3,7.891323111E-2
3.004010420E0,-8.070819080E-2,-6.108472589E-4,-2.672456671E-3,8.075473498E-2
3.006518389E0,-8.498412371E-2,1.832541777E-3,-3.894151188E-3,8.509303088E-2
3.009026306E0,-8.437328041E-2,1.160609815E-2,1.076618303E-2,8.584557448E-2
3.011534222E0,-8.559497446E-2,7.330167107E-3,1.603474026E-3,8.592323394E-2
3.014042191E0,-8.864920586E-2,6.108472589E-3,-8.780929260E-3,8.929221610E-2
3.016550108E0,-8.559497446E-2,1.832541777E-3,-8.399150101E-4,8.561870893E-2
3.019058024E0,-8.498412371E-2,-6.719320081E-3,-2.290677221E-4,8.524965112E-2
3.021565993E0,-8.742751181E-2,4.275931045E-3,2.214321401E-3,8.756001729E-2
3.024073910E0,-8.742751181E-2,1.221694518E-3,1.603474026E-3,8.745074893E-2
3.026581826E0,-8.742751181E-2,4.275931045E-3,3.817795368E-4,8.753284620E-2
3.029089795E0,-8.803836256E-2,7.941014133E-3,2.214321401E-3,8.842350484E-2
3.031597712E0,-8.437328041E-2,-6.108472589E-4,-1.450762269E-3,8.438796296E-2
3.034105681E0,-8.437328041E-2,6.108472589E-4,-2.672456671E-3,8.441780384E-2
3.036613597E0,-8.315158635E-2,4.886778072E-3,2.214321401E-3,8.332448699E-2
3.039121514E0,-7.948649675E-2,1.221694518E-3,4.046862945E-3,7.959882413E-2
3.041629483E0,-7.704310864E-2,-1.221694518E-3,-3.283303929E-3,7.712271528E-2
3.044137399E0,-7.521057129E-2,4.275931045E-3,-8.399150101E-4,7.533670471E-2
3.046645316E0,-7.215633243E-2,4.275931045E-3,9.926267667E-4,7.228973097E-2
3.049153285E0,-6.971294433E-2,-0.000000000E0,-8.399150101E-4,6.971800387E-2
3.051661201E0,-6.726955622E-2,2.443389036E-3,-5.115845706E-3,6.750803820E-2
3.054169170E0,-6.604786217E-2,3.054236295E-3,-8.399150101E-4,6.612377722E-2
3.056677087E0,-6.238277629E-2,-3.054236295E-3,3.817795368E-4,6.245866547E-2
3.059185003E0,-6.055023521E-2,-1.221694518E-3,-1.450762269E-3,6.057993259E-2
3.061692972E0,-6.116108224E-2,4.886778072E-3,3.817795368E-4,6.135718651E-2
3.064200889E0,-5.993938819E-2,6.719320081E-3,-2.290677221E-4,6.031527162E-2
3.066708858E0,-5.932854116E-2,-0.000000000E0,9.926267667E-4,5.933684441E-2
3.069216774E0,-5.993938819E-2,6.719320081E-3,3.436015919E-3,6.041262884E-2
3.071724691E0,-5.993938819E-2,2.443389036E-3,1.603474026E-3,6.001059519E-2
3.074232660E0,-6.116108224E-2,1.832541777E-3,-1.450762269E-3,6.120572605E-2
3.076740576E0,-6.055023521E-2,4.275931045E-3,3.817795368E-4,6.070222670E-2
3.079248493E0,-6.360447407E-2,7.330167107E-3,2.214321401E-3,6.406374708E-2
3.081756462E0,-6.482616812E-2,6.108472589E-4,-2.061609412E-3,6.486181805E-2
3.084264378E0,-6.726955622E-2,3.665083554E-3,3.817795368E-4,6.737040736E-2
3.086772347E0,-7.032378763E-2,3.665083554E-3,-8.399150101E-4,7.042423873E-2
3.089280264E0,-7.276718318E-2,3.665083554E-3,9.926267667E-4,7.286618622E-2
3.091788181E0,-7.826480269E-2,6.108472589E-4,9.926267667E-4,7.827348071E-2
3.094296149E0,-8.376242965E-2,6.719320081E-3,3.817795368E-4,8.403237257E-2
3.096804066E0,-8.803836256E-2,1.221694518E-3,9.926267667E-4,8.805243397E-2
3.099311983E0,-9.597937763E-2,3.665083554E-3,2.214321401E-3,9.607485096E-2
3.101819951E0,-1.002553031E-1,-1.832541777E-3,3.817795368E-4,1.002727768E-1
3.104327868E0,-1.069746241E-1,4.275931045E-3,-8.399150101E-4,1.070633422E-1
3.106835837E0,-1.124722511E-1,2.443389036E-3,1.603474026E-3,1.125102153E-1
3.109343753E0,-1.179698780E-1,3.665083554E-3,-1.450762269E-3,1.180357135E-1
3.111851670E0,-1.246891990E-1,4.275931045E-3,-1.450762269E-3,1.247709287E-1
3.114359639E0,-1.338519007E-1,7.330167107E-3,9.926267667E-4,1.340561374E-1
3.116867556E0,-1.393495351E-1,-1.221694518E-3,1.603474026E-3,1.393641152E-1
3.119375472E0,-1.472905427E-1,4.886778072E-3,4.657710437E-3,1.474451723E-1
3.121883441E0,-1.527881771E-1,3.665083554E-3,2.825168660E-3,1.528582398E-1
3.124391358E0,-1.576749533E-1,2.443389036E-3,9.926267667E-4,1.576970081E-1
3.126899274E0,-1.656159610E-1,5.497625098E-3,3.817795368E-4,1.657076225E-1
3.129407243E0,-1.717244387E-1,5.497625098E-3,3.817795368E-4,1.718128414E-1
3.131915160E0,-1.784437597E-1,8.551862091E-3,3.817795368E-4,1.786489728E-1
3.134423128E0,-1.845522225E-1,4.886778072E-3,9.926267667E-4,1.846195784E-1
3.136931045E0,-1.894390136E-1,4.886778072E-3,1.603474026E-3,1.895088167E-1
3.139438962E0,-1.955474764E-1,6.108472589E-4,3.436015919E-3,1.955786156E-1
3.141946931E0,-2.022667974E-1,7.330167107E-3,-1.450762269E-3,2.024047761E-1
3.144454847E0,-2.059318870E-1,3.054236295E-3,-3.283303929E-3,2.059807043E-1
3.146962816E0,-2.108186632E-1,4.886778072E-3,9.926267667E-4,2.108776296E-1
3.149470733E0,-2.169271260E-1,9.162709117E-3,1.603474026E-3,2.171264709E-1
3.151978649E0,-2.248681486E-1,1.038440317E-2,1.603474026E-3,2.251135074E-1
3.154486618E0,-2.273115367E-1,4.886778072E-3,3.436015919E-3,2.273900207E-1
3.156994535E0,-2.315874696E-1,1.038440317E-2,3.436015919E-3,2.318456342E-1
3.159502451E0,-2.376959324E-1,5.497625098E-3,9.926267667E-4,2.377615727E-1
3.162010420E0,-2.419718653E-1,4.886778072E-3,-8.399150101E-4,2.420226635E-1
3.164518337E0,-2.431935668E-1,9.162709117E-3,-1.450762269E-3,2.433704396E-1
3.167026253E0,-2.462477982E-1,4.886778072E-3,2.214321401E-3,2.463062361E-1
3.169534222E0,-2.523562610E-1,3.665083554E-3,-1.450762269E-3,2.523870441E-1
3.172042139E0,-2.541888058E-1,7.941014133E-3,2.214321401E-3,2.543224566E-1
3.174550108E0,-2.572430372E-1,6.719320081E-3,-2.290677221E-4,2.573308803E-1
3.177058024E0,-2.596864402E-1,9.162709117E-3,2.214321401E-3,2.598574719E-1
3.179565941E0,-2.657949030E-1,1.099525020E-2,9.926267667E-4,2.660240803E-1
3.182073910E0,-2.676274478E-1,5.497625098E-3,2.825168660E-3,2.676988164E-1
3.184581826E0,-2.731250823E-1,5.497625098E-3,2.214321401E-3,2.731893806E-1
3.187089795E0,-2.749576271E-1,4.275931045E-3,4.046862945E-3,2.750206490E-1
3.189597712E0,-2.792335451E-1,4.886778072E-3,5.879404955E-3,2.793381834E-1
3.192105628E0,-2.828986347E-1,9.162709117E-3,4.657710437E-3,2.830852999E-1
3.194613597E0,-2.859528661E-1,7.941014133E-3,2.214321401E-3,2.860716773E-1
3.197121514E0,-2.908396423E-1,6.108472589E-3,-1.450762269E-3,2.909074005E-1
3.199629431E0,-2.945047319E-1,1.099525020E-2,-2.290677221E-4,2.947100017E-1
3.202137399E0,-2.993915081E-1,6.108472589E-3,-2.290677221E-4,2.994539047E-1
3.204645316E0,-3.067216873E-1,1.038440317E-2,9.926267667E-4,3.068990300E-1
3.207153233E0,-3.116084635E-1,6.719320081E-3,1.603474026E-3,3.116850252E-1
3.209661201E0,-3.177169263E-1,7.330167107E-3,2.214321401E-3,3.178091878E-1
3.212169118E0,-3.238253891E-1,9.162709117E-3,1.603474026E-3,3.239589619E-1
3.214677087E0,-3.281013370E-1,7.941014133E-3,2.825168660E-3,3.282095803E-1
3.217185003E0,-3.348206580E-1,7.941014133E-3,1.603474026E-3,3.349186526E-1
3.219692920E0,-3.439833522E-1,4.886778072E-3,5.879404955E-3,3.440682993E-1
3.222200889E0,-3.904077411E-1,-1.466033421E-2,1.931804419E-2,3.911602185E-1
3.224708806E0,-4.441623092E-1,3.054236295E-3,1.015533600E-2,4.442888881E-1
3.227216722E0,-4.863107800E-1,-3.054236295E-3,5.879404955E-3,4.863559093E-1
3.229724691E0,-5.137988925E-1,1.832541823E-2,4.046862945E-3,5.141415175E-1
3.232232608E0,-5.449520946E-1,2.504473738E-2,3.817795368E-4,5.455274237E-1
3.234740576E0,-5.962632895E-1,1.221694518E-2,2.825168660E-3,5.963951255E-1
3.237248493E0,-6.408551335E-1,1.404948719E-2,-1.450762269E-3,6.410107604E-1
3.239756410E0,-6.781167984E-1,4.886778072E-3,9.544488043E-3,6.782015704E-1
3.242264378E0,-7.043832541E-1,7.941014133E-3,8.933641016E-3,7.044846615E-1
3.244772295E0,-7.398123741E-1,1.832541777E-3,6.490251981E-3,7.398431121E-1
3.247280264E0,-7.776849270E-1,8.551862091E-3,6.490251981E-3,7.777590265E-1
3.249788181E0,-8.485432267E-1,-1.221694518E-2,3.703261539E-2,8.494388006E-1
3.252296097E0,-9.358943701E-1,5.497625098E-3,2.420482226E-2,9.362234612E-1
3.254804066E0,-1.007363439E0,6.108472589E-4,1.382041909E-2,1.007458423E0
3.257311983E0,-1.057452917E0,2.565558441E-2,1.382041909E-2,1.057854378E0
3.259819899E0,-1.115483403E0,2.565558441E-2,1.809635013E-2,1.115925136E0
3.262327868E0,-1.199780345E0,2.260134928E-2,1.015533600E-2,1.200036178E0
3.264835785E0,-1.285986185E0,1.221694518E-2,-5.726693198E-3,1.286056965E0
3.267343753E0,-1.355622768E0,1.282779220E-2,1.565296017E-2,1.355773822E0
3.269851670E0,-1.436865449E0,1.527118124E-2,1.809635013E-2,1.437060543E0
3.272359587E0,-1.529714227E0,1.038440317E-2,7.711946499E-3,1.529768912E0
3.274867556E0,-1.634169102E0,1.710372418E-2,8.933641016E-3,1.634283023E0
3.277375472E0,-1.724574566E0,3.237490356E-2,2.237228118E-2,1.725023503E0
3.279883389E0,-1.800930381E0,2.626643144E-2,2.481566928E-2,1.801292863E0
3.282391358E0,-1.887059927E0,3.237490356E-2,1.809635013E-2,1.887424377E0
3.284899274E0,-1.971356869E0,3.176405653E-2,2.298312820E-2,1.971746709E0
3.287407243E0,-2.050766945E0,2.748812735E-2,3.275668249E-2,2.051212729E0
3.289915160E0,-2.124679565E0,2.932066843E-2,3.275668249E-2,2.125134339E0
3.292423076E0,-2.196148634E0,2.932066843E-2,2.237228118E-2,2.196458295E0
3.294931045E0,-2.279834747E0,2.748812735E-2,2.237228118E-2,2.280110215E0
3.297438962E0,-2.381235361E0,3.420744836E-2,3.092414327E-2,2.381681821E0
3.299946878E0,-2.541888237E0,-3.054236295E-3,5.657972768E-2,2.542519696E0
3.302454847E0,-2.725753069E0,2.015795931E-2,4.253023863E-2,2.726159379E0
3.304962764E0,-2.868080616E0,3.909422457E-2,9.544488043E-3,2.868362926E0
3.307470733E0,-2.951155901E0,7.941014320E-2,2.725905925E-2,2.952349942E0
3.309978649E0,-3.072103500E0,8.368607610E-2,2.786990628E-2,3.073369488E0
3.312486566E0,-3.248638391E0,5.680879578E-2,1.931804419E-2,3.249192488E0
3.314994535E0,-3.417843103E0,2.993151546E-2,4.008685052E-2,3.418209229E0
3.317502451E0,-3.551007748E0,2.626643144E-2,6.757497787E-2,3.551747785E0
3.320010368E0,-3.667068720E0,3.909422457E-2,5.413633958E-2,3.667676662E0
3.322518337E0,-3.806952715E0,5.008947477E-2,3.703261539E-2,3.807462323E0
3.325026253E0,-3.948745728E0,7.024743408E-2,3.886515647E-2,3.949561751E0
3.327534170E0,-4.069082737E0,8.429691941E-2,4.558447748E-2,4.070211080E0
3.330042139E0,-4.175370216E0,7.574506104E-2,4.497363046E-2,4.176299365E0
3.332550056E0,-4.274327278E0,6.474980712E-2,4.375193641E-2,4.275041573E0
3.335058024E0,-4.345185757E0,6.108472496E-2,5.596888065E-2,4.345975508E0
3.337565941E0,-4.394664288E0,5.375456065E-2,5.719057471E-2,4.395365117E0
3.340073858E0,-4.439256191E0,6.291726977E-2,4.802786559E-2,4.439961801E0
3.342581826E0,-4.491178036E0,7.391251624E-2,3.642176837E-2,4.491933855E0
3.345089743E0,-4.534548283E0,6.963659078E-2,4.253023863E-2,4.535282373E0
3.347597712E0,-4.562036514E0,7.452336699E-2,5.841226876E-2,4.563019054E0
3.350105628E0,-4.573031425E0,5.986303091E-2,4.863871261E-2,4.573681857E0
3.352613545E0,-4.555927753E0,5.925218388E-2,5.535803363E-2,4.556649320E0
3.355121514E0,-4.509503365E0,4.886778072E-2,6.085565686E-2,4.510178718E0
3.357629431E0,-4.460635662E0,5.314370990E-2,5.780142173E-2,4.461326683E0
3.360137347E0,-4.408102989E0,6.597150117E-2,4.802786559E-2,4.408858228E0
3.362645316E0,-4.347629070E0,7.391251624E-2,4.008685052E-2,4.348442083E0
3.365153233E0,-4.286544323E0,7.146912813E-2,4.802786559E-2,4.287409095E0
3.367661149E0,-4.230346203E0,6.780404598E-2,4.680617154E-2,4.231148450E0
3.370169118E0,-4.174759388E0,5.253286287E-2,4.314108938E-2,4.175312779E0
3.372677035E0,-4.115507126E0,4.642439261E-2,4.741701856E-2,4.116042092E0
3.375185003E0,-4.054422379E0,4.764608666E-2,4.619532451E-2,4.054965472E0
3.377692920E0,-3.994559288E0,4.886778072E-2,4.253023863E-2,3.995084578E0
3.380200837E0,-3.929733038E0,5.680879578E-2,3.886515647E-2,3.930335799E0
3.382708806E0,-3.854598999E0,5.803048983E-2,4.253023863E-2,3.855270393E0
3.385216722E0,-3.770302057E0,6.230641901E-2,4.741701856E-2,3.771114963E0
3.387724691E0,-3.673788071E0,5.619794875E-2,4.497363046E-2,3.674493111E0
3.390232608E0,-3.563835621E0,4.947862774E-2,4.558447748E-2,3.564470565E0
3.392740524E0,-3.441055298E0,4.275930673E-2,4.619532451E-2,3.441630998E0
3.395248493E0,-3.311555624E0,3.787253052E-2,4.436278343E-2,3.312069298E0
3.397756410E0,-3.177169323E0,3.909422457E-2,3.520007432E-2,3.177604807E0
3.400264326E0,-3.040339470E0,4.520269856E-2,2.786990628E-2,3.040803201E0
3.402772295E0,-2.905342340E0,4.459185153E-2,2.909160033E-2,2.905830152E0
3.405280212E0,-2.748965263E0,5.314370990E-2,3.275668249E-2,2.749674030E0
3.407788181E0,-2.537001371E0,3.115320951E-2,4.008685052E-2,2.537509298E0
3.410296097E0,-2.293273211E0,1.832541823E-2,6.329904497E-2,2.294219826E0
3.412804014E0,-2.048934460E0,2.260134928E-2,4.680617154E-2,2.049593633E0
3.415311983E0,-1.814979911E0,2.321219631E-2,2.298312820E-2,1.815273838E0
3.417819899E0,-1.569419265E0,2.626643144E-2,7.711946499E-3,1.569657997E0
3.420327816E0,-1.335464835E0,2.870982140E-2,2.214321401E-3,1.335775237E0
3.422835785E0,-1.110596657E0,1.710372418E-2,-1.450762269E-3,1.110729299E0
3.425343701E0,-8.827506304E-1,1.282779220E-2,-2.290677221E-4,8.828438594E-1
3.427851670E0,-6.426876783E-1,1.832541777E-3,2.214321401E-3,6.426941056E-1
3.430359587E0,-3.983487785E-1,-1.832541777E-3,6.490251981E-3,3.984058620E-1
3.432867503E0,-1.509556323E-1,-0.000000000E0,4.046862945E-3,1.510098673E-1
3.435375472E0,1.013242900E-1,6.108472589E-3,-3.283303929E-3,1.015613375E-1
3.437883389E0,3.487174213E-1,7.330167107E-3,-4.504998680E-3,3.488235460E-1
3.440391306E0,5.857261419E-1,-6.108472589E-4,-2.061609412E-3,5.857300886E-1
3.442899274E0,8.080745935E-1,-7.330167107E-3,-2.061609412E-3,8.081104691E-1
3.445407191E0,1.016984344E0,-1.160609815E-2,-8.780929260E-3,1.017088473E0
3.447915160E0,1.210622907E0,-1.404948719E-2,-1.916533336E-2,1.210856110E0
3.450423076E0,1.385936022E0,-7.330167107E-3,-2.710634656E-2,1.386220452E0
3.452930993E0,1.549108624E0,-1.160609815E-2,-4.115583375E-2,1.549698692E0
3.455438962E0,1.695101142E0,-9.162709117E-3,-4.298837483E-2,1.695670911E0
3.457946878E0,1.827654958E0,-1.710372418E-2,-3.687990457E-2,1.828107029E0
3.460454795E0,1.943105102E0,-2.748812735E-2,-3.016058356E-2,1.943533559E0
3.462962764E0,2.040229797E0,-2.687728032E-2,-1.916533336E-2,2.040496833E0
3.465470681E0,2.075659037E0,-2.015795931E-2,-1.916533336E-2,2.075845392E0
3.467978649E0,2.084210873E0,-2.626643144E-2,-2.588465251E-2,2.084537095E0
3.470486566E0,2.095206022E0,-7.941014133E-3,-1.305686031E-2,2.095261754E0
3.472994483E0,2.141019583E0,-1.832541823E-2,-1.916533336E-2,2.141183781E0
3.475502451E0,2.181946516E0,-2.076880634E-2,-2.099787444E-2,2.182146387E0
3.478010368E0,2.185611486E0,-2.321219631E-2,-2.344126441E-2,2.185860441E0
3.480518285E0,2.166675329E0,-1.649287529E-2,-2.405211143E-2,2.166871593E0
3.483026253E0,2.133078575E0,-6.108472589E-3,-2.405211143E-2,2.133222920E0
3.485534170E0,2.064663649E0,-3.298575059E-2,-3.993413970E-2,2.065313239E0
3.488042087E0,1.998692274E0,-1.893626526E-2,-2.344126441E-2,1.998919428E0
3.490550056E0,1.974869132E0,-3.237490356E-2,-1.488940232E-2,1.975190603E0
3.493057972E0,1.968760729E0,-4.337015375E-2,-1.977618039E-2,1.969337674E0
3.495565941E0,1.936385870E0,-4.031591862E-2,-1.916533336E-2,1.936900338E0
3.498073858E0,1.912562728E0,-2.443389036E-2,-1.122431830E-2,1.912751732E0
3.500581774E0,1.916227818E0,-2.687728032E-2,-1.244601328E-2,1.916456715E0
3.503089743E0,1.931499004E0,-2.687728032E-2,-2.466295846E-2,1.931843434E0
3.505597660E0,1.955932975E0,-3.359659761E-2,-1.977618039E-2,1.956321454E0
3.508105628E0,1.994416356E0,-3.787253052E-2,-1.733279042E-2,1.994851211E0
3.510613545E0,2.042673349E0,-4.153761268E-2,-1.916533336E-2,2.043185526E0
3.513121462E0,2.083600044E0,-3.420744836E-2,-3.504735976E-2,2.084175523E0
3.515629431E0,2.118418217E0,-2.565558441E-2,-3.810159862E-2,2.118916157E0
3.518137347E0,2.160566807E0,-1.893626526E-2,-3.382566571E-2,2.160914548E0
3.520645264E0,2.202104330E0,-1.832541823E-2,-2.954973653E-2,2.202378825E0
3.523153233E0,2.233257532E0,-1.771457121E-2,-3.260397166E-2,2.233565766E0
3.525661149E0,2.249750376E0,-2.565558441E-2,-2.954973653E-2,2.250090698E0
3.528169118E0,2.255858898E0,-2.809897438E-2,-2.954973653E-2,2.256227406E0
3.530677035E0,2.249750376E0,-3.237490356E-2,-3.626905754E-2,2.250275612E0
3.533184951E0,2.233868361E0,-2.321219631E-2,-3.565821052E-2,2.234273521E0
3.535692920E0,2.217375517E0,-2.932066843E-2,-3.260397166E-2,2.217809032E0
3.538200837E0,2.243642092E0,-9.773556143E-3,-6.253548712E-2,2.244534706E0
3.540708753E0,2.309002638E0,-1.527118124E-2,-1.305686031E-2,2.309090053E0
3.543216722E0,2.362146378E0,-1.343864016E-2,3.825430945E-2,2.362494338E0
3.545724639E0,2.401240587E0,-3.481829539E-2,1.504211407E-2,2.401540118E0
3.548232608E0,2.456216812E0,-5.558710173E-2,-4.237752780E-2,2.457211185E0
3.550740524E0,2.524020910E0,-5.558710173E-2,-5.520532280E-2,2.525236446E0
3.553248441E0,2.568612814E0,-4.703523964E-2,-3.443651274E-2,2.569274212E0
3.555756410E0,2.596100807E0,-3.542914242E-2,-3.016058356E-2,2.596517723E0
3.558264326E0,2.623589039E0,-2.932066843E-2,-5.215108395E-2,2.624271114E0
3.560772295E0,2.641914368E0,-2.748812735E-2,-4.054498672E-2,2.642368449E0
3.563280212E0,2.639471054E0,-4.092676565E-2,-1.977618039E-2,2.639862410E0
3.565788128E0,2.627864838E0,-5.558710173E-2,-3.138227761E-2,2.628640024E0
3.568296097E0,2.597933292E0,-6.230641901E-2,-3.871244565E-2,2.598968668E0
3.570804014E0,2.533794403E0,-4.642439261E-2,-3.199312463E-2,2.534421603E0
3.573311931E0,2.433615446E0,-3.115320951E-2,-2.221956849E-2,2.433916262E0
3.575819899E0,2.327938795E0,-1.832541823E-2,-2.954973653E-2,2.328198454E0
3.578327816E0,2.216153860E0,-1.221694518E-2,-2.893888950E-2,2.216376467E0
3.580835733E0,2.093373537E0,-1.221694518E-2,-3.260397166E-2,2.093663067E0
3.583343701E0,1.963873982E0,-1.221694518E-2,-4.482091591E-2,1.964423373E0
3.585851618E0,1.842926145E0,-3.970507160E-2,-4.359922186E-2,1.843869344E0
3.588359587E0,1.724421859E0,-5.070032179E-2,-2.771719359E-2,1.725389670E0
3.590867503E0,1.590035439E0,-4.581354558E-2,-1.061347127E-2,1.590730720E0
3.593375420E0,1.445264578E0,-2.321219631E-2,-8.170082234E-3,1.445474059E0
3.595883389E0,1.313856125E0,-1.527118124E-2,-1.366770733E-2,1.314015956E0
3.598391306E0,1.175193787E0,-3.665083554E-3,4.046862945E-3,1.175206470E0
3.600899222E0,1.022481918E0,1.221694518E-3,-3.894151188E-3,1.022490064E0
3.603407191E0,8.630508184E-1,-1.221694518E-3,-2.588465251E-2,8.634397622E-1
3.605915108E0,7.127823830E-1,-1.038440317E-2,-2.527380548E-2,7.133059137E-1
3.608423076E0,5.631248355E-1,-1.466033421E-2,-1.488940232E-2,5.635123779E-1
3.610930993E0,4.061370790E-1,-1.527118124E-2,-5.726693198E-3,4.064644276E-1
3.613438910E0,2.546469569E-1,-9.162709117E-3,-1.000262424E-2,2.550080007E-1
3.615946878E0,1.117086932E-1,3.665083554E-3,-7.559234742E-3,1.120241358E-1
3.618454795E0,-2.634278871E-2,8.551862091E-3,1.603474026E-3,2.774253037E-2
3.620962712E0,-1.552315652E-1,7.941014133E-3,4.046862945E-3,1.554872202E-1
3.623470681E0,-2.816769481E-1,1.282779220E-2,1.603474026E-3,2.819734499E-1
3.625978597E0,-3.934620023E-1,4.886778072E-3,1.259872504E-2,3.936939874E-1
3.628486566E0,-5.003602505E-1,3.665083554E-3,1.687465608E-2,5.006581340E-1
3.630994483E0,-6.072585583E-1,1.221694518E-2,1.259872504E-2,6.075120889E-1
3.633502399E0,-7.007181644E-1,1.649287529E-2,1.603474026E-3,7.009140689E-1
3.636010368E0,-7.801283002E-1,1.466033421E-2,-2.061609412E-3,7.802687616E-1
3.638518285E0,-8.393805027E-1,1.527118124E-2,-3.894151188E-3,8.395284401E-1
3.641026201E0,-8.632035255E-1,2.626643144E-2,4.046862945E-3,8.636125457E-1
3.643534170E0,-8.955784440E-1,8.551862091E-3,2.053973824E-2,8.958547676E-1
3.646042087E0,-9.236773849E-1,3.665083554E-3,1.748550311E-2,9.238501431E-1
3.648550056E0,-9.468895793E-1,3.665083554E-3,1.015533600E-2,9.469511281E-1
3.651057972E0,-9.383377433E-1,1.160609815E-2,9.544488043E-3,9.384580541E-1
3.653565889E0,-9.145147204E-1,1.710372418E-2,1.504211407E-2,9.147983256E-1
3.656073858E0,-8.668686152E-1,1.466033421E-2,1.626380906E-2,8.671451048E-1
3.658581774E0,-7.899018526E-1,1.832541777E-3,2.298312820E-2,7.902382673E-1
3.661089691E0,-7.031615376E-1,7.330167107E-3,1.809635013E-2,7.034325535E-1
3.663597660E0,-6.243622303E-1,1.466033421E-2,8.933641016E-3,6.245982148E-1
3.666105576E0,-5.278483629E-1,1.893626526E-2,-6.337540224E-3,5.282259373E-1
3.668613545E0,-4.062897861E-1,1.160609815E-2,-3.894151188E-3,4.064741766E-1
3.671121462E0,-2.786227167E-1,1.038440317E-2,-1.450762269E-3,2.788199397E-1
3.673629378E0,-1.277434379E-1,1.832541777E-3,4.046862945E-3,1.278206604E-1
3.676137347E0,3.596363217E-2,-7.330167107E-3,1.870719716E-2,4.119555090E-2
3.678645264E0,1.892862916E-1,-3.054236295E-3,1.443126611E-2,1.898601854E-1
3.681153181E0,3.310028613E-1,-0.000000000E0,-7.559234742E-3,3.310891665E-1
3.683661149E0,4.550048411E-1,6.108472589E-4,-1.305686031E-2,4.551925528E-1
3.686169066E0,5.796176791E-1,-1.832541777E-3,-2.344126441E-2,5.800943932E-1
3.688677035E0,6.779640913E-1,-0.000000000E0,-2.099787444E-2,6.782891860E-1
3.691184951E0,7.873057723E-1,-4.275931045E-3,-3.443651274E-2,7.880701340E-1
3.693692868E0,9.687274098E-1,-6.108472589E-4,-4.421006888E-2,9.697358908E-1
3.696200837E0,1.195962548E0,-1.588202827E-2,5.047125369E-2,1.197132408E0
3.698708753E0,1.412278891E0,-1.649287529E-2,6.574243307E-2,1.413904434E0
3.701216722E0,1.582705259E0,-2.137965336E-2,-2.061609412E-3,1.582850997E0
3.703724639E0,1.760461807E0,-2.748812735E-2,-5.031854287E-2,1.761395279E0
3.706232556E0,1.946770191E0,-2.626643144E-2,-3.199312463E-2,1.947210226E0
3.708740472E0,2.118418217E0,-3.481829539E-2,-1.916533336E-2,2.118791015E0
3.711248441E0,2.285790443E0,-4.886778072E-2,-3.626905754E-2,2.286600415E0
3.713756358E0,2.453773499E0,-5.986303091E-2,-2.649549954E-2,2.454646609E0
3.716264326E0,2.598544121E0,-6.963659078E-2,-8.170082234E-3,2.599489864E0
3.718772243E0,2.698112249E0,-7.696675509E-2,-3.504735976E-2,2.699437332E0
3.721280160E0,2.762862206E0,-7.269082218E-2,-6.375718117E-2,2.764553581E0
3.723788128E0,2.787906885E0,-7.513421029E-2,-5.581616983E-2,2.789477620E0
3.726296045E0,2.759196997E0,-5.925218388E-2,-3.138227761E-2,2.760011546E0
3.728804014E0,2.685895443E0,-6.169557199E-2,-2.344126441E-2,2.686706193E0
3.731311931E0,2.560671806E0,-6.291726977E-2,-2.832804248E-2,2.561601288E0
3.733819847E0,2.406127453E0,-4.764608666E-2,-2.405211143E-2,2.406719338E0
3.736327816E0,2.232035875E0,-4.764608666E-2,-1.916533336E-2,2.232626616E0
3.738835733E0,2.034121275E0,-4.214845970E-2,-3.077143058E-2,2.034790587E0
3.741343649E0,1.808718681E0,-4.703523964E-2,-3.871244565E-2,1.809744246E0
3.743851618E0,1.563768983E0,-3.542914242E-2,-2.283041552E-2,1.564336883E0
3.746359535E0,1.311412692E0,-3.176405653E-2,-7.559234742E-3,1.311819098E0
3.748867503E0,1.054246068E0,-2.260134928E-2,-5.726693198E-3,1.054503859E0
3.751375420E0,8.080745935E-1,-9.162709117E-3,-2.061609412E-3,8.081291693E-1
3.753883337E0,5.820610523E-1,-5.497625098E-3,9.926267667E-4,5.820878609E-1
3.756391306E0,3.768163919E-1,-1.221694518E-3,-2.290677221E-4,3.768184420E-1
3.758899222E0,1.953947693E-1,-6.108472589E-4,-5.726693198E-3,1.954796256E-1
3.761407139E0,3.779617324E-2,8.551862091E-3,-2.061609412E-3,3.880638209E-2
3.763915108E0,-9.048175067E-2,1.099525020E-2,4.657710437E-3,9.126629716E-2
3.766423024E0,-1.863847673E-1,1.832541823E-2,7.711946499E-3,1.874421952E-1
3.768930993E0,-2.480803430E-1,2.382304333E-2,5.268557463E-3,2.492772586E-1
3.771438910E0,-2.871745825E-1,2.565558441E-2,7.711946499E-3,2.884214346E-1
3.773946826E0,-3.103867769E-1,2.076880634E-2,2.214321401E-3,3.110887298E-1
3.776454795E0,-3.226037025E-1,2.076880634E-2,-8.780929260E-3,3.233907805E-1
3.778962712E0,-3.262687922E-1,2.076880634E-2,-6.948387716E-3,3.270029788E-1
3.781470628E0,-3.232145607E-1,2.137965336E-2,-5.726693198E-3,3.239715063E-1
3.783978597E0,-3.226037025E-1,3.237490356E-2,-7.559234742E-3,3.243122343E-1
3.786486514E0,-3.201603293E-1,3.298575059E-2,-1.000262424E-2,3.220104792E-1
3.788994483E0,-3.134410083E-1,3.176405653E-2,-6.948387716E-3,3.151229936E-1
3.791502399E0,-3.097759187E-1,3.420744836E-2,-1.305686031E-2,3.119322858E-1
3.794010316E0,-3.024457395E-1,2.993151546E-2,-1.061347127E-2,3.041084786E-1
3.796518285E0,-2.908396423E-1,2.321219631E-2,-8.170082234E-3,2.918788342E-1
3.799026201E0,-2.853420377E-1,1.771457121E-2,-5.115845706E-3,2.859371546E-1
3.801534118E0,-2.859528661E-1,2.565558441E-2,-4.504998680E-3,2.871368065E-1
3.804042087E0,-2.883962691E-1,2.137965336E-2,-5.726693198E-3,2.892443476E-1
3.806550003E0,-2.890070975E-1,2.565558441E-2,-4.504998680E-3,2.901785768E-1
3.809057972E0,-2.890070975E-1,2.626643144E-2,-6.948387716E-3,2.902814288E-1
3.811565889E0,-2.932830453E-1,2.321219631E-2,-1.000262424E-2,2.943701806E-1
3.814073806E0,-2.987806797E-1,1.527118124E-2,-5.115845706E-3,2.992144305E-1
3.816581774E0,-3.109976053E-1,1.038440317E-2,-8.399150101E-4,3.111720614E-1
3.819089691E0,-3.140518367E-1,9.162709117E-3,-2.672456671E-3,3.141968386E-1
3.821597608E0,-3.116084635E-1,2.015795931E-2,2.214321401E-3,3.122676434E-1
3.824105576E0,-3.158843815E-1,2.504473738E-2,7.101099472E-3,3.169552129E-1
3.826613493E0,-3.226037025E-1,2.443389036E-2,5.268557463E-3,3.235705821E-1
3.829121462E0,-3.244362473E-1,1.282779220E-2,5.879404955E-3,3.247429726E-1
3.831629378E0,-3.244362473E-1,4.275931045E-3,6.490251981E-3,3.245293293E-1
3.834137295E0,-3.293230236E-1,-6.719320081E-3,7.101099472E-3,3.294680997E-1
3.836645264E0,-3.354314864E-1,-9.162709117E-3,5.879404955E-3,3.356081118E-1
3.839153181E0,-3.390965760E-1,3.665083554E-3,-8.399150101E-4,3.391174223E-1
3.841661097E0,-3.464267552E-1,6.108472589E-3,2.214321401E-3,3.464876814E-1
3.844169066E0,-3.598653972E-1,7.330167107E-3,-8.399150101E-4,3.599410242E-1
3.846676983E0,-3.696389496E-1,1.038440317E-2,-3.894151188E-3,3.698052911E-1
3.849184951E0,-3.726931810E-1,-3.054236295E-3,-1.450762269E-3,3.727085192E-1
3.851692868E0,-3.763582706E-1,2.443389036E-3,5.879404955E-3,3.764121218E-1
3.854200785E0,-3.702498078E-1,2.443389036E-3,8.322793990E-3,3.703513997E-1
3.856708753E0,-3.403182924E-1,9.773556143E-3,8.933641016E-3,3.405757955E-1
3.859216670E0,-2.920613587E-1,1.160609815E-2,1.015533600E-2,2.924682369E-1
3.861724587E0,-2.370850891E-1,1.588202827E-2,1.015533600E-2,2.378333642E-1
3.864232556E0,-1.821088344E-1,1.282779220E-2,4.046862945E-3,1.826049203E-1
3.866740472E0,-1.295759678E-1,7.941014133E-3,-2.672456671E-3,1.298465755E-1
3.869248389E0,-8.254073560E-2,2.443389036E-3,-3.283303929E-3,8.264213979E-2
3.871756358E0,-4.955498502E-2,-3.665083554E-3,-3.894151188E-3,4.984269045E-2
3.874264274E0,-3.184041381E-2,-5.497625098E-3,-5.726693198E-3,3.281510092E-2
3.876772243E0,-1.656923257E-2,-4.886778072E-3,-8.780929260E-3,1.937846192E-2
3.879280160E0,1.145338640E-3,-5.497625098E-3,-4.504998680E-3,7.199353820E-3
3.881788076E0,1.702736691E-2,-6.108472589E-4,-3.283303929E-3,1.735178500E-2
3.884296045E0,3.413109109E-2,1.832541777E-3,-3.894151188E-3,3.440136628E-2
3.886803962E0,5.001311749E-2,5.497625098E-3,-2.061609412E-3,5.035658881E-2
3.889311931E0,6.650599837E-2,5.497625098E-3,9.926267667E-4,6.674022033E-2
3.891819847E0,7.811209559E-2,6.108472589E-3,3.436015919E-3,7.842588298E-2
3.894327764E0,1.043785289E-1,1.221694518E-3,-2.290677221E-4,1.043859296E-1
3.896835733E0,1.666849405E-1,1.466033421E-2,1.015533600E-2,1.676362897E-1
3.899343649E0,2.302130610E-1,-1.221694518E-2,8.322793990E-3,2.306871823E-1
3.901851566E0,2.833567858E-1,-0.000000000E0,-4.504998680E-3,2.833925953E-1
3.904359535E0,3.352787793E-1,-1.221694518E-2,-1.122431830E-2,3.356889913E-1
3.906867451E0,3.945309818E-1,-9.773556143E-3,-1.183516532E-2,3.948294431E-1
3.909375420E0,4.513397813E-1,-9.162709117E-3,-9.391776286E-3,4.515304628E-1
3.911883337E0,5.167004466E-1,-5.497625098E-3,-8.780929260E-3,5.168042958E-1
3.914391253E0,5.826719403E-1,-3.665083554E-3,-5.726693198E-3,5.827116078E-1
3.916899222E0,6.462000608E-1,-4.275931045E-3,-8.399150101E-4,6.462147535E-1
3.919407139E0,7.017871737E-1,-5.497625098E-3,-8.170082234E-3,7.018562612E-1
3.921915056E0,7.494332194E-1,-1.893626526E-2,-1.916533336E-2,7.499173571E-1
3.924423024E0,7.866948843E-1,-1.710372418E-2,-1.611109637E-2,7.870457076E-1
3.926930941E0,8.196806908E-1,-1.466033421E-2,-1.366770733E-2,8.199257079E-1
3.929438910E0,8.551098108E-1,-7.330167107E-3,-1.305686031E-2,8.552409026E-1
3.931946826E0,8.960365653E-1,-1.710372418E-2,-5.115845706E-3,8.962143915E-1
3.934454743E0,9.082534909E-1,-8.002099395E-2,2.053973824E-2,9.120030943E-1
3.936962712E0,7.763105035E-1,-8.124268800E-2,3.336753324E-2,7.812629291E-1
3.939470628E0,5.466319323E-1,-7.818844914E-2,4.046862945E-3,5.522103585E-1
3.941978545E0,2.796916962E-1,-6.536065787E-2,-8.399150101E-4,2.872284212E-1
3.944486514E0,9.216158092E-2,7.941014133E-3,4.680617154E-2,1.036707982E-1
3.946994431E0,-9.781191498E-2,3.726168349E-2,-1.733279042E-2,1.060944362E-1
3.949502399E0,-2.719033957E-1,-4.275931045E-3,-3.565821052E-2,2.742649233E-1
3.952010316E0,-4.374429882E-1,-2.687728032E-2,9.544488043E-3,4.383718209E-1
3.954518233E0,-5.828246474E-1,-2.015795931E-2,4.741701856E-2,5.850976727E-1
3.957026201E0,-7.465317249E-1,-4.214845970E-2,1.870719716E-2,7.479545897E-1
3.959534118E0,-9.151255488E-1,-6.230641901E-2,-6.337540224E-3,9.172660598E-1
3.962042035E0,-1.040349245E0,-6.352811307E-2,3.817795368E-4,1.042287157E0
3.964550003E0,-1.089217067E0,-6.474980712E-2,3.436015919E-3,1.091145344E0
3.967057920E0,-1.046457767E0,-6.108472496E-2,-9.391776286E-3,1.048281168E0
3.969565889E0,-9.475004673E-1,-6.169557199E-2,-3.894151188E-3,9.495149517E-1
3.972073806E0,-8.076164126E-1,-1.160609815E-2,1.259872504E-2,8.077980560E-1
3.974581722E0,-5.871005654E-1,1.282779220E-2,1.748550311E-2,5.875009523E-1
3.977089691E0,-2.425827235E-1,7.941014133E-3,4.046862945E-3,2.427463997E-1
3.979597608E0,1.660740972E-1,1.038440317E-2,-8.780929260E-3,1.666299682E-1
3.982105524E0,5.325824618E-1,1.649287529E-2,-1.000262424E-2,5.329316524E-1
3.984613493E0,8.392277956E-1,2.687728032E-2,-1.000262424E-2,8.397176511E-1
3.987121410E0,1.016373515E0,-6.108472589E-3,-2.893888950E-2,1.016803764E0
3.989629326E0,1.088453412E0,9.773556143E-3,-3.504735976E-2,1.089061371E0
3.992137295E0,1.037753105E0,1.527118124E-2,-1.305686031E-2,1.037947589E0
3.994645212E0,9.504019618E-1,1.038440317E-2,-1.672194339E-2,9.506057796E-1
3.997153181E0,8.679376245E-1,6.108472589E-4,-4.054498672E-2,8.688843358E-1
3.999661097E0,7.695912123E-1,-3.665083554E-3,-4.604261369E-2,7.709759978E-1
4.002169014E0,6.504759789E-1,-3.054236295E-3,-3.443651274E-2,6.513940442E-1
4.004676983E0,5.215871930E-1,4.886778072E-3,-2.221956849E-2,5.220831253E-1
4.007184899E0,4.055262208E-1,1.038440317E-2,-1.061347127E-2,4.057979760E-1
4.009692868E0,3.242835402E-1,1.527118124E-2,-5.115845706E-3,3.246832230E-1
4.012200785E0,2.894652486E-1,1.771457121E-2,-3.283303929E-3,2.900253717E-1
4.014708701E0,3.120665848E-1,2.015795931E-2,1.603474026E-3,3.127210703E-1
4.017216670E0,3.878116608E-1,1.771457121E-2,-2.672456671E-3,3.882252340E-1
4.019724587E0,4.837146699E-1,1.466033421E-2,-1.427855436E-2,4.841473788E-1
4.022232503E0,5.838935971E-1,1.404948719E-2,-1.183516532E-2,5.841824989E-1
4.024740472E0,6.840725541E-1,1.038440317E-2,-3.894151188E-3,6.841624511E-1
4.027248389E0,7.756996751E-1,6.719320081E-3,-3.894151188E-3,7.757385511E-1
4.029756306E0,8.471688032E-1,3.665083554E-3,-9.391776286E-3,8.472287881E-1
4.032264274E0,9.003124833E-1,-3.054236295E-3,-1.061347127E-2,9.003802206E-1
4.034772191E0,9.455152154E-1,-0.000000000E0,-1.061347127E-2,9.455747820E-1
4.037280160E0,9.754467010E-1,-1.099525020E-2,-1.855448633E-2,9.756851086E-1
4.039788076E0,9.815551639E-1,-1.160609815E-2,-1.855448633E-2,9.817991191E-1
4.042295993E0,9.791117907E-1,-1.221694518E-2,-1.305686031E-2,9.792750553E-1
4.044803962E0,9.760575891E-1,-7.330167107E-3,-5.726693198E-3,9.761019125E-1
4.047311878E0,9.522345066E-1,-8.551862091E-3,-1.450762269E-3,9.522740124E-1
4.049819795E0,9.027559161E-1,-9.162709117E-3,-6.337540224E-3,9.028246584E-1
4.052327764E0,8.398386240E-1,-4.275931045E-3,-8.780929260E-3,8.398954117E-1
4.054835681E0,7.989118695E-1,-2.443389036E-3,-6.337540224E-3,7.989407424E-1
4.057343649E0,7.744779587E-1,-1.527118124E-2,-3.894151188E-3,7.746382910E-1
4.059851566E0,7.616502047E-1,6.108472589E-4,2.825168660E-3,7.616556893E-1
4.062359483E0,7.665369511E-1,6.719320081E-3,8.933641016E-3,7.666184557E-1
4.064867451E0,7.866948843E-1,4.275931045E-3,4.657710437E-3,7.867202926E-1
4.067375368E0,8.019660711E-1,1.221694518E-3,3.817795368E-4,8.019670926E-1
4.069883285E0,8.062420487E-1,3.054236295E-3,-2.672456671E-3,8.062522630E-1
4.072391253E0,8.062420487E-1,-4.275931045E-3,-2.672456671E-3,8.062578166E-1
4.074899170E0,8.050203323E-1,-1.038440317E-2,-8.170082234E-3,8.051287609E-1
4.077407139E0,8.019660711E-1,-9.773556143E-3,-8.780929260E-3,8.020736914E-1
4.079915056E0,7.940250635E-1,-1.160609815E-2,-9.391776286E-3,7.941654163E-1
4.082422972E0,7.640935779E-1,-1.099525020E-2,-5.726693198E-3,7.641941417E-1
4.084930941E0,7.249993682E-1,-6.719320081E-3,-7.559234742E-3,7.250699105E-1
4.087438858E0,6.828508973E-1,-6.719320081E-3,-6.948387716E-3,6.829193051E-1
4.089946774E0,6.358156204E-1,-6.719320081E-3,-7.559234742E-3,6.358960563E-1
4.092454743E0,5.838935971E-1,-6.108472589E-3,-8.170082234E-3,5.839827022E-1
4.094962660E0,5.307499170E-1,-3.665083554E-3,-3.283303929E-3,5.307727266E-1
4.097470628E0,4.769953489E-1,-3.054236295E-3,1.603474026E-3,4.770078221E-1
4.099978545E0,4.305709600E-1,-2.443389036E-3,2.214321401E-3,4.305835865E-1
4.102486462E0,3.872008026E-1,-0.000000000E0,6.490251981E-3,3.872551935E-1
4.104994431E0,3.499391377E-1,1.221694518E-3,2.825168660E-3,3.499526742E-1
4.107502347E0,3.181750774E-1,-2.443389036E-3,3.817795368E-4,3.181846882E-1
4.110010264E0,2.876327038E-1,1.832541777E-3,-1.450762269E-3,2.876422000E-1
4.112518233E0,2.552577853E-1,-0.000000000E0,-2.672456671E-3,2.552717748E-1
4.115026149E0,2.234937400E-1,-3.054236295E-3,-2.672456671E-3,2.235305845E-1
4.117534118E0,1.911188364E-1,1.832541777E-3,-8.399150101E-4,1.911294674E-1
4.120042035E0,1.538571566E-1,-1.832541777E-3,-2.061609412E-3,1.538818803E-1
4.122549951E0,1.110978425E-1,-1.221694518E-3,-8.399150101E-4,1.111077342E-1
4.125057920E0,6.161921844E-2,2.443389036E-3,-2.061609412E-3,6.170209449E-2
4.127565837E0,1.519482583E-2,-1.832541777E-3,-8.399150101E-4,1.532796133E-2
4.130073753E0,-3.428380191E-2,-3.665083554E-3,-2.672456671E-3,3.458256693E-2
4.132581722E0,-9.109259397E-2,-0.000000000E0,-2.290677221E-4,9.109288198E-2
4.135089639E0,-1.454579979E-1,6.108472589E-4,9.926267667E-4,1.454626674E-1
4.137597556E0,-1.931040883E-1,6.108472589E-4,-2.290677221E-4,1.931051903E-1
4.140105524E0,-2.438044101E-1,4.886778072E-3,3.817795368E-4,2.438536790E-1
