"Time (s)","Linear Acceleration x (m/s^2)","Linear Acceleration y (m/s^2)","Linear Acceleration z (m/s^2)","Absolute acceleration (m/s^2)"
2.493979200E-2,0.000000000E0,0.000000000E0,0.000000000E0,0.000000000E0
3.005338600E-2,-2.157801390E-2,6.662726402E-3,-5.950546265E-2,6.364670213E-2
3.516953200E-2,7.918208838E-3,8.559703827E-3,-4.877948761E-2,5.015381314E-2
4.028567700E-2,9.483307600E-3,7.472515106E-3,4.474639893E-2,4.634664844E-2
4.540182300E-2,-2.039462328E-3,-2.482056618E-3,1.206388474E-1,1.206816121E-1
5.051796900E-2,2.019441128E-2,-3.483688831E-2,1.510066986E-1,1.562832239E-1
5.563411500E-2,3.367260098E-2,-2.048671246E-2,8.079624176E-2,8.989762025E-2
6.075026100E-2,1.055523753E-2,-2.512228489E-2,2.104759216E-2,3.443172045E-2
6.586640700E-2,-1.621028781E-2,-2.751493454E-2,4.449844360E-3,3.224354460E-2
7.098255200E-2,4.371404648E-4,-3.863096237E-2,4.343605042E-2,5.813116910E-2
7.609869800E-2,2.516865730E-3,-3.389358521E-2,9.673023224E-2,1.025273015E-1
8.121484400E-2,1.761174202E-2,-4.958975315E-2,1.463890076E-1,1.555604661E-1
8.633099000E-2,1.177912951E-2,-4.233300686E-2,1.225347519E-1,1.301752541E-1
9.144713600E-2,1.977172494E-2,-2.824068069E-4,6.332397461E-2,6.633948011E-2
9.656328200E-2,-1.715630293E-3,-1.259684563E-3,-1.172351837E-2,1.191516158E-2
1.016794270E-1,-1.064530015E-2,4.552721977E-3,-5.519580841E-2,5.639704743E-2
1.067955730E-1,-1.065433025E-3,1.004326344E-2,-3.323078156E-2,3.473164452E-2
1.119117190E-1,1.487916708E-2,1.731312275E-2,-8.332252502E-3,2.430144572E-2
1.170278650E-1,-3.351178765E-2,-7.643342018E-3,2.205181122E-2,4.083800885E-2
1.221440110E-1,1.380276680E-2,-4.305648804E-2,7.149410248E-2,8.459186854E-2
1.272601570E-1,2.231308818E-2,-4.315447807E-2,9.145641327E-2,1.035589610E-1
1.323763020E-1,-2.424067259E-2,-5.077779293E-2,1.085128784E-1,1.222335439E-1
1.374924480E-1,-6.831437349E-3,-9.779548645E-2,1.388864517E-1,1.700002123E-1
1.426085940E-1,2.802103758E-2,-8.867168427E-2,1.545763016E-1,1.803931239E-1
1.477247400E-1,4.116654396E-3,-7.608509064E-2,1.607952118E-1,1.779353478E-1
1.528408860E-1,-4.444506764E-2,-8.552360535E-2,1.394939423E-1,1.695529741E-1
1.579570320E-1,1.266720891E-2,-8.379197121E-2,1.238851547E-1,1.500969160E-1
1.630731770E-1,3.093245625E-2,-5.500423908E-2,1.090707779E-1,1.260107843E-1
1.681893230E-1,-2.454519272E-3,-9.039509296E-2,9.500026703E-2,1.311577227E-1
1.733054690E-1,7.002025843E-3,-6.056118011E-2,9.780406952E-2,1.152489519E-1
1.784216150E-1,4.628445208E-2,-5.771183968E-2,1.030139923E-1,1.268258237E-1
1.835377610E-1,2.986013889E-3,-7.409358025E-2,8.968925476E-2,1.163741266E-1
1.886539070E-1,-4.031419754E-3,-5.799198151E-2,6.532192230E-2,8.744298598E-2
1.937700520E-1,2.176952362E-2,-4.259479046E-2,4.409313202E-2,6.505714891E-2
1.988861980E-1,4.670441151E-3,-1.851713657E-2,3.050994873E-2,3.599380973E-2
2.040023440E-1,-2.579784393E-2,-2.090239525E-2,3.407478333E-3,3.337738437E-2
2.091184900E-1,7.531553507E-3,-2.240777016E-3,-8.970260620E-3,1.192522350E-2
2.142346360E-1,1.671621203E-2,-9.680151939E-3,-3.733539581E-2,4.203651825E-2
2.193507820E-1,-1.645889878E-2,-7.395029068E-3,-3.702259064E-2,4.118560454E-2
2.244669270E-1,-4.195213318E-3,-9.783625603E-3,-4.139614105E-2,4.274294841E-2
2.295830730E-1,7.438272238E-3,2.058267593E-2,-3.400707245E-2,4.044076432E-2
2.346992190E-1,-9.233117104E-3,-5.846500397E-3,-3.848171234E-2,4.000342739E-2
2.398153650E-1,2.139389515E-2,-1.982128620E-2,-3.118610382E-2,4.269842161E-2
2.449315110E-1,2.328974009E-2,-5.439400673E-3,-2.171421051E-2,3.230334365E-2
2.500476570E-1,-1.481679082E-2,-7.702112198E-4,-1.244831085E-2,1.936726513E-2
2.551638020E-1,-1.920863986E-2,-1.760613918E-2,-5.665779114E-3,2.666550272E-2
2.602799480E-1,2.592632174E-2,-2.990508080E-2,2.918624878E-2,4.917646932E-2
2.653960940E-1,1.134297252E-2,-6.115186214E-2,5.402660370E-2,8.238377981E-2
2.705122400E-1,-3.099083900E-3,-8.783662319E-2,1.113443375E-1,1.418535801E-1
2.756283860E-1,1.557773352E-2,-6.807243824E-2,1.395750046E-1,1.560695503E-1
2.807421360E-1,4.127225280E-2,-5.902504921E-2,1.674842834E-1,1.823138516E-1
2.857579690E-1,-9.029775858E-3,-1.026039124E-1,1.574888229E-1,1.881803099E-1
2.907738020E-1,-2.332627773E-2,-1.490823030E-1,1.738119125E-1,2.301743453E-1
2.957895320E-1,1.691424847E-2,-1.373959780E-1,2.324523926E-1,2.705510329E-1
3.008054170E-1,1.398375630E-2,-1.250765324E-1,2.504167557E-1,2.802645820E-1
3.058211460E-1,-2.657902241E-2,-1.852418184E-1,2.637567520E-1,3.234016078E-1
3.108370320E-1,-9.920358658E-3,-2.135794163E-1,2.985200882E-1,3.671904460E-1
3.158528650E-1,3.929114342E-2,-2.084677219E-1,3.449783325E-1,4.049847342E-1
3.208685940E-1,-1.828086376E-2,-2.555769682E-1,3.912763596E-1,4.677082063E-1
3.258844800E-1,-3.724274039E-2,-2.816445827E-1,4.728727341E-1,5.516514437E-1
3.309002090E-1,7.660239935E-3,-3.462641239E-1,5.799055099E-1,6.754612670E-1
3.359160940E-1,1.162886620E-2,-3.619976044E-1,6.579275131E-1,7.510300318E-1
3.409319270E-1,-3.178766370E-2,-3.933597803E-1,6.980733871E-1,8.019032524E-1
3.459476570E-1,-3.926783800E-3,-4.476521015E-1,7.317266464E-1,8.578063352E-1
3.509635420E-1,4.618644714E-3,-4.329363108E-1,7.567682266E-1,8.718677250E-1
3.559793750E-1,-1.998955011E-2,-5.458850861E-1,8.111228943E-1,9.779112735E-1
3.609951050E-1,2.885422111E-2,-5.723726749E-1,7.977476120E-1,9.822648816E-1
3.660109900E-1,2.937245369E-2,-5.371848345E-1,8.049592972E-1,9.681889059E-1
3.710268230E-1,-3.641641140E-2,-5.192140341E-1,7.618169785E-1,9.226453690E-1
3.760425520E-1,-1.606944203E-2,-5.748109818E-1,7.210502625E-1,9.222686012E-1
3.810584380E-1,3.698012233E-2,-6.445730925E-1,7.371416092E-1,9.799080329E-1
3.860741670E-1,-5.375593901E-3,-7.096414566E-1,8.165607452E-1,1.081846267E0
3.910900520E-1,-1.429739594E-2,-7.375775576E-1,9.422187805E-1,1.196662567E0
3.961058860E-1,2.814739943E-3,-7.711434364E-1,9.979190826E-1,1.261155271E0
4.011216150E-1,1.951438189E-2,-7.696719170E-1,9.492340088E-1,1.222219651E0
4.061375000E-1,-4.923808575E-2,-7.849973440E-1,8.258857727E-1,1.140496615E0
4.111533340E-1,-3.426578641E-2,-7.618114948E-1,6.547574997E-1,1.005106104E0
4.161690630E-1,6.292819977E-3,-7.214143276E-1,5.002412796E-1,8.779063558E-1
4.211849480E-1,-3.386825323E-3,-6.916925907E-1,4.092979431E-1,8.037256478E-1
4.262006770E-1,3.682285547E-3,-6.314587593E-1,2.911338806E-1,6.953507463E-1
4.312165630E-1,1.764647663E-2,-5.615210533E-1,1.647901535E-1,5.854682623E-1
4.362323960E-1,1.470701396E-2,-4.975697994E-1,-1.249217987E-2,4.979438283E-1
4.412481250E-1,-1.625758410E-2,-4.316773415E-1,-2.119779587E-1,4.811904936E-1
4.462640110E-1,2.172222733E-2,-3.846073151E-1,-3.745059967E-1,5.372610013E-1
4.512797400E-1,-4.738375545E-3,-3.351225853E-1,-4.815034866E-1,5.866644757E-1
4.562956250E-1,-1.184733212E-2,-3.682141304E-1,-4.414262772E-1,5.749601406E-1
4.613114590E-1,4.287470877E-2,-3.409857750E-1,-3.837413788E-1,5.151378313E-1
4.663271880E-1,9.221255779E-3,-3.226654530E-1,-3.015851974E-1,4.417597281E-1
4.713430730E-1,-9.605392814E-3,-3.035097122E-1,-3.065481186E-1,4.314883057E-1
4.763589070E-1,4.966261983E-2,-2.664198875E-1,-3.955793381E-1,4.795090666E-1
4.813746360E-1,3.747268021E-2,-2.111358643E-1,-5.348691940E-1,5.762530778E-1
4.863905210E-1,6.598427892E-3,-1.945366859E-1,-6.529808044E-1,6.813750747E-1
4.914062500E-1,-5.009084940E-3,-1.711902618E-1,-6.626071930E-1,6.843825603E-1
4.964221360E-1,2.850565314E-2,-1.484117508E-1,-6.146306992E-1,6.329372136E-1
5.014379690E-1,6.670811772E-2,-1.187629700E-1,-5.785808563E-1,5.943992121E-1
5.064536980E-1,2.856357396E-2,-7.748842239E-2,-6.065831184E-1,6.121792327E-1
5.114695840E-1,7.511332631E-3,-7.435131073E-2,-6.388821602E-1,6.432378659E-1
5.164853130E-1,6.506080925E-2,-5.434703827E-2,-7.135057449E-1,7.185241524E-1
5.215011980E-1,6.283378601E-2,-1.505231857E-2,-7.354793549E-1,7.383119519E-1
5.265170320E-1,-1.533907652E-2,-1.845884323E-2,-7.432365417E-1,7.436239461E-1
5.315327610E-1,-2.390766144E-2,-1.205158234E-2,-6.753454208E-1,6.758759164E-1
5.365486460E-1,7.208581269E-2,3.238248825E-2,-6.605496407E-1,6.652599625E-1
5.415644800E-1,6.026573479E-2,6.719970703E-2,-6.511011124E-1,6.573282422E-1
5.465802090E-1,8.345931768E-3,6.647777557E-2,-6.779003143E-1,6.812031895E-1
5.515960940E-1,4.735538363E-2,8.514881134E-2,-6.980566978E-1,7.048233863E-1
5.566118230E-1,5.039413273E-2,1.015605927E-1,-7.353610992E-1,7.440497758E-1
5.616277090E-1,8.229225874E-3,9.897279739E-2,-7.255930901E-1,7.323582915E-1
5.666435420E-1,2.142955363E-2,1.012687683E-1,-6.692543030E-1,6.772118659E-1
5.716592710E-1,6.530454755E-2,1.080579758E-1,-5.926809311E-1,6.059801120E-1
5.766751570E-1,5.400703847E-2,1.238675117E-1,-5.505447388E-1,5.668857293E-1
5.816908860E-1,3.836333752E-2,1.225609779E-1,-5.094013214E-1,5.253405041E-1
5.867067710E-1,5.374912918E-2,1.182198524E-1,-5.022673607E-1,5.187845449E-1
5.917226050E-1,6.175041199E-2,9.663724899E-2,-5.051755905E-1,5.180291966E-1
5.967383340E-1,3.888867795E-2,6.968784332E-2,-4.918627739E-1,4.982948054E-1
6.017542190E-1,3.773126006E-2,4.888296127E-2,-4.028286934E-1,4.075342294E-1
6.067699480E-1,5.077707767E-2,3.876352310E-2,-3.121962547E-1,3.186650652E-1
6.117858340E-1,5.891759694E-2,2.025222778E-2,-2.722220421E-1,2.792602302E-1
6.168016670E-1,4.113812745E-2,-9.226799011E-3,-2.679920197E-1,2.712880424E-1
6.218173960E-1,4.477624595E-2,-2.618837357E-2,-1.968202591E-1,2.035410462E-1
6.268332820E-1,3.877654672E-2,-4.779005051E-2,-1.229391098E-1,1.374828506E-1
6.318491150E-1,4.242376983E-2,-8.141899109E-2,-9.260177612E-4,9.181332074E-2
6.368648440E-1,5.063866079E-2,-1.414260864E-1,7.408332825E-2,1.674931384E-1
6.418807300E-1,2.564458549E-2,-2.016668320E-1,1.763324738E-1,2.691101952E-1
6.468964590E-1,2.690766752E-2,-2.338247299E-1,2.488522530E-1,3.425280583E-1
6.519123440E-1,4.003812373E-2,-2.477355003E-1,3.086977005E-1,3.978318738E-1
6.569281770E-1,3.195551038E-2,-2.338352203E-1,3.297162056E-1,4.054785335E-1
6.619439070E-1,3.347684443E-2,-2.612237930E-1,2.647833824E-1,3.734552299E-1
6.669597920E-1,4.205700755E-2,-2.795462608E-1,1.976189613E-1,3.449176100E-1
6.719755210E-1,5.276688188E-2,-2.794218063E-1,1.996397972E-1,3.474434318E-1
6.769914070E-1,1.096588373E-2,-2.918419838E-1,2.371058464E-1,3.761797131E-1
6.820072400E-1,1.473984122E-2,-3.048367500E-1,2.694697380E-1,4.071322227E-1
6.870229690E-1,5.912829936E-2,-3.039360046E-1,2.633552551E-1,4.064839986E-1
6.920388550E-1,8.164423704E-2,-3.295593262E-1,2.427997589E-1,4.174049039E-1
6.970545840E-1,2.556730807E-2,-3.362808228E-1,2.102808952E-1,3.974374591E-1
7.020704690E-1,3.637298942E-2,-3.361592293E-1,1.993026733E-1,3.924889519E-1
7.070863020E-1,6.151093543E-2,-3.411345482E-1,1.931934357E-1,3.968375974E-1
7.121020320E-1,6.508840621E-2,-3.559617996E-1,2.134776115E-1,4.201404456E-1
7.171179170E-1,5.431345105E-2,-4.021735191E-1,2.627673149E-1,4.834668057E-1
7.221336460E-1,7.933054119E-2,-3.914794922E-1,3.099489212E-1,5.055866507E-1
7.271495320E-1,3.770671785E-2,-4.502372742E-1,3.670496941E-1,5.821175805E-1
7.321653650E-1,1.781395078E-2,-4.852728844E-1,3.795375824E-1,6.163244970E-1
7.371810940E-1,6.235542893E-2,-5.014376640E-1,4.048719406E-1,6.474945704E-1
7.421969800E-1,5.684679002E-2,-5.058445930E-1,4.072823524E-1,6.519119760E-1
7.472128130E-1,1.349566877E-2,-5.509371758E-1,3.872480392E-1,6.735539686E-1
7.522285420E-1,5.862483382E-2,-5.626664162E-1,4.591941833E-1,7.286217572E-1
7.572444270E-1,6.007979810E-2,-5.313720703E-1,5.436186790E-1,7.625530326E-1
7.622601570E-1,3.552558273E-2,-5.116443634E-1,3.166227341E-1,6.027370715E-1
7.672760420E-1,3.955975175E-3,-5.482130051E-1,2.031164169E-1,5.846447019E-1
7.722918750E-1,3.687758744E-2,-5.742473602E-1,4.582929611E-2,5.772523812E-1
7.773076050E-1,3.612364829E-2,-5.517005920E-1,1.305317879E-1,5.680818681E-1
7.823234900E-1,1.876577735E-2,-5.784406662E-1,2.062439919E-1,6.143959170E-1
7.873392190E-1,6.347095221E-2,-5.945796967E-1,2.921171188E-1,6.654967983E-1
7.923551050E-1,6.758373231E-2,-5.929527283E-1,3.501229286E-1,6.919151422E-1
7.973709380E-1,5.747596174E-2,-6.304388046E-1,3.181750774E-1,7.085139042E-1
8.023866670E-1,7.827086002E-2,-6.115036011E-1,2.134735584E-1,6.524062705E-1
8.074025520E-1,4.426909983E-2,-6.195802689E-1,1.362605095E-1,6.359295474E-1
8.124182820E-1,1.779174805E-2,-6.424140930E-1,7.192945480E-2,6.466732248E-1
8.174341670E-1,8.186258376E-2,-6.369743347E-1,5.606698990E-2,6.446559494E-1
8.224500000E-1,1.291646212E-1,-6.436853409E-1,8.575034142E-2,6.620932249E-1
8.274657300E-1,5.238746107E-2,-6.100330353E-1,9.406042099E-2,6.194611473E-1
8.324816150E-1,3.800903261E-2,-6.336164474E-1,7.366538048E-2,6.390157098E-1
8.374973440E-1,1.024918035E-1,-6.379308701E-1,-3.539562225E-3,6.461214230E-1
8.425132300E-1,1.025115326E-1,-6.109600067E-1,-4.491925240E-2,6.211267853E-1
8.475290630E-1,-1.454368234E-2,-6.194810867E-1,-6.960654259E-2,6.235490408E-1
8.525447920E-1,2.170321345E-2,-6.488809586E-1,-5.873894691E-2,6.518955374E-1
8.575606770E-1,1.437818110E-1,-6.037044525E-1,-6.285512447E-2,6.237652137E-1
8.625764070E-1,1.341236830E-1,-5.485868454E-1,-5.569028854E-2,5.674840064E-1
8.675922920E-1,7.208585739E-4,-5.500259399E-1,-1.309448481E-1,5.653986271E-1
8.726081250E-1,5.652774125E-2,-5.766735077E-1,-2.550939322E-1,6.331039679E-1
8.776238550E-1,1.477242261E-1,-5.688591003E-1,-3.826482892E-1,7.013150763E-1
8.826397400E-1,5.741485208E-2,-5.315160751E-1,-3.446274996E-1,6.360612524E-1
8.876554690E-1,8.097037673E-3,-5.076427460E-1,-2.895140648E-1,5.844528324E-1
8.926713550E-1,1.211469322E-1,-5.304708481E-1,-2.648826241E-1,6.051765895E-1
8.976871880E-1,1.406818777E-1,-5.163803101E-1,-2.541527450E-1,5.924809137E-1
9.027029170E-1,5.295982212E-2,-5.250711441E-1,-2.883896232E-1,6.013925705E-1
9.077188020E-1,9.220843017E-2,-5.159187317E-1,-3.222678006E-1,6.152487851E-1
9.127345320E-1,1.312228739E-1,-5.318613052E-1,-3.843151629E-1,6.691741441E-1
9.177504170E-1,8.190108836E-2,-5.560703278E-1,-3.481749594E-1,6.611715360E-1
9.227662500E-1,8.064555377E-2,-5.313510895E-1,-2.930856943E-1,6.121575858E-1
9.277819800E-1,1.270491183E-1,-4.912824631E-1,-2.452348471E-1,5.635956593E-1
9.327978650E-1,9.942534566E-2,-5.097551346E-1,-2.929339409E-1,5.962767732E-1
9.378135940E-1,8.168835938E-2,-5.245637894E-1,-3.574371338E-1,6.400011420E-1
9.428294800E-1,1.165103093E-1,-5.285844803E-1,-4.196732044E-1,6.849100696E-1
9.478453130E-1,1.011878699E-1,-5.194797516E-1,-4.057999849E-1,6.669121570E-1
9.528610420E-1,9.326387197E-2,-4.830703735E-1,-3.712631464E-1,6.163533560E-1
9.578769270E-1,1.353655905E-1,-4.290552139E-1,-4.067513943E-1,6.065137397E-1
9.628926570E-1,8.444362134E-2,-4.457759857E-1,-4.839508533E-1,6.633667033E-1
9.679085420E-1,1.052699238E-1,-4.281005859E-1,-5.264155865E-1,6.866332633E-1
9.729243750E-1,1.282751262E-1,-3.976898193E-1,-5.272395611E-1,6.727505148E-1
9.779401050E-1,9.866105020E-2,-3.261489868E-1,-5.012235641E-1,6.060793889E-1
9.829559900E-1,1.171073020E-1,-3.734197617E-1,-5.822687149E-1,7.015648900E-1
9.879717190E-1,1.020206958E-1,-3.507537842E-1,-6.529612541E-1,7.481943858E-1
9.929876050E-1,1.109070629E-1,-3.158187866E-1,-6.469485760E-1,7.284122065E-1
9.980034380E-1,1.032073274E-1,-3.639221191E-1,-6.501090527E-1,7.521521399E-1
1.003019167E0,1.455611438E-1,-3.137025833E-1,-6.243546009E-1,7.137338615E-1
1.008035052E0,9.454982728E-2,-2.564954758E-1,-5.871281624E-1,6.476488848E-1
1.013050782E0,8.667974174E-2,-2.259941101E-1,-6.962075233E-1,7.370831914E-1
1.018066667E0,1.504954547E-1,-1.462707520E-1,-8.276977539E-1,8.538896806E-1
1.023082500E0,1.355379224E-1,-1.226730347E-1,-9.865326881E-1,1.003327437E0
1.028098230E0,1.563419104E-1,-6.418609619E-2,-9.764547348E-1,9.909725006E-1
1.033114115E0,4.564364254E-2,-7.362937927E-2,-9.151601791E-1,9.192512067E-1
1.038129844E0,9.558758140E-2,-1.342554092E-1,-9.246425629E-1,9.392152946E-1
1.043145730E0,2.024561614E-1,-5.761432648E-2,-9.137215614E-1,9.376539872E-1
1.048161563E0,9.850730002E-2,-6.398200989E-3,-8.155555725E-1,8.215080748E-1
1.053177292E0,5.255150795E-2,-4.978275299E-2,-7.927255630E-1,7.960237445E-1
1.058193177E0,1.928296089E-1,-5.873870850E-2,-8.304743767E-1,8.545883127E-1
1.063208907E0,1.892538369E-1,-3.573131561E-2,-8.114261627E-1,8.339701189E-1
1.068224792E0,6.160998344E-2,-2.878093719E-2,-7.860345840E-1,7.889705316E-1
1.073240625E0,1.207134202E-1,-2.843046188E-2,-7.805943489E-1,7.903844372E-1
1.078256355E0,1.891126037E-1,-3.715038300E-3,-7.805838585E-1,8.031740400E-1
1.083272240E0,1.379269361E-1,1.668405533E-2,-7.524123192E-1,7.651316851E-1
1.088287969E0,8.228746057E-2,-5.304861069E-2,-7.366547585E-1,7.431322994E-1
1.093303855E0,1.197695583E-1,-2.428913116E-2,-7.307882309E-1,7.409359941E-1
1.098319584E0,1.690703928E-1,9.484767914E-3,-6.870899200E-1,7.076491481E-1
1.103335469E0,1.632052362E-1,5.047655106E-2,-6.415314674E-1,6.638873813E-1
1.108351302E0,1.216129288E-1,2.946567535E-2,-6.631975174E-1,6.748991610E-1
1.113367032E0,1.635885537E-1,1.812648773E-2,-7.207932472E-1,7.393461231E-1
1.118382917E0,1.411075294E-1,1.408576965E-2,-7.329597473E-1,7.465518970E-1
1.123398750E0,1.091954410E-1,1.971960068E-2,-6.854696274E-1,6.943926246E-1
1.128414480E0,1.271460652E-1,2.784633636E-2,-6.189851761E-1,6.325220854E-1
1.133430365E0,1.474570036E-1,7.460594177E-3,-5.692734718E-1,5.881084204E-1
1.138446094E0,1.248355359E-1,2.318286896E-2,-5.479483604E-1,5.624666765E-1
1.143461980E0,1.454850286E-1,1.972103119E-2,-5.384445190E-1,5.581015255E-1
1.148477709E0,1.462019980E-1,-2.527666092E-2,-6.034960747E-1,6.214671721E-1
1.153493594E0,4.018368721E-1,2.080416679E-1,-5.707869530E-1,7.283899732E-1
1.158509427E0,-1.433869302E-1,5.305542946E-1,-9.929704666E-1,1.134917626E0
1.163525157E0,-9.213328362E-2,-1.435613632E-1,-1.408761978E0,1.419052049E0
1.168541042E0,8.412088156E-1,2.205042839E-1,-1.444325447E0,1.685921234E0
1.173556771E0,5.536505580E-2,5.985622406E-1,-8.955988884E-1,1.078628488E0
1.178572657E0,-6.670011878E-1,2.587609291E-1,-7.682428360E-1,1.049783243E0
1.183588490E0,5.906349421E-1,2.888817787E-1,-1.279041767E0,1.438141217E0
1.188604219E0,8.877852559E-1,1.121937752E0,-1.510862350E0,2.080771977E0
1.193620105E0,-3.532867432E-1,1.209510326E0,-2.260517120E0,2.587984622E0
1.198635834E0,-1.507830471E-1,7.475862503E-1,-3.372811317E0,3.457958489E0
1.203651719E0,8.411433697E-1,1.289468765E0,-3.888834476E0,4.182497513E0
1.208667552E0,-1.503074020E-1,1.278918743E0,-3.303612709E0,3.545713242E0
1.213683282E0,-3.689495325E-1,8.947296143E-1,-2.818514347E0,2.980048316E0
1.218699167E0,3.806066513E-1,7.384095192E-1,-2.410419941E0,2.549555713E0
1.223714896E0,6.234387159E-1,9.284605980E-1,-1.876619339E0,2.184585786E0
1.228730782E0,-2.662050724E-1,4.836044312E-1,-1.129902363E0,1.257544328E0
1.233746615E0,1.581730694E-1,1.451702118E-1,-7.037162781E-1,7.357375281E-1
1.238762344E0,3.107506633E-1,6.958198547E-2,-1.636395454E-1,3.580300661E-1
1.243778230E0,3.324833512E-2,-1.356225014E-1,5.415234566E-1,5.592374886E-1
1.248793959E0,1.162247360E-2,-3.761377335E-1,9.873490334E-1,1.056632760E0
1.253809844E0,3.217381835E-1,-3.201537132E-1,1.270465851E0,1.349109831E0
1.258825573E0,1.555295140E-1,-3.765616417E-1,1.293829918E0,1.356460083E0
1.263841459E0,9.509125352E-2,-5.690283775E-1,1.122612000E0,1.262178015E0
1.268857292E0,1.548134536E-1,-7.561655045E-1,8.458909988E-1,1.145113557E0
1.273873021E0,1.619925946E-1,-7.399816513E-1,7.645711899E-1,1.076282281E0
1.278888907E0,-1.932480931E-2,-6.475257874E-1,8.922233582E-1,1.102599480E0
1.283904740E0,1.962243021E-2,-6.124281883E-1,1.085016727E0,1.246079702E0
1.288920469E0,2.016738206E-1,-5.698347092E-1,1.259325027E0,1.396883478E0
1.293936355E0,2.295365185E-1,-4.867358208E-1,1.317115307E0,1.422811127E0
1.298952084E0,7.789884508E-2,-4.524388313E-1,1.124512672E0,1.214618408E0
1.303967969E0,-6.311453879E-2,-3.384780884E-1,5.896539688E-1,6.828196426E-1
1.308983802E0,1.351074576E-1,-5.170812607E-1,-2.368927002E-3,5.344461311E-1
1.313999532E0,3.742794394E-1,-7.125759125E-2,5.396461487E-2,3.848050451E-1
1.319015417E0,-3.097109795E-1,-3.723721504E-1,4.483747482E-1,6.600165332E-1
1.324031146E0,-8.109347522E-2,-5.772113800E-1,6.035938263E-1,8.390915540E-1
1.329047032E0,6.170195341E-1,-2.258219719E-1,5.062298775E-1,8.294440049E-1
1.334062761E0,2.000484467E-1,-3.364181519E-2,4.623599052E-1,5.049037876E-1
1.339078646E0,-2.460633367E-1,-1.989126205E-1,1.992239952E-1,3.739031914E-1
1.344094375E0,1.361510158E-1,-2.600440979E-1,-1.775226593E-1,3.430369171E-1
1.349110261E0,2.715170681E-1,-2.924671173E-1,-1.371755600E-1,4.219901270E-1
1.354126094E0,9.803906083E-3,-3.762984276E-1,2.215280533E-1,4.367737418E-1
1.359141823E0,2.353943884E-2,-4.035897255E-1,5.588531494E-1,6.897504000E-1
1.364157709E0,2.138371915E-1,-3.764686584E-1,7.152438164E-1,8.360793695E-1
1.369173542E0,1.575559974E-1,-4.167871475E-1,7.794971466E-1,8.978592430E-1
1.374189271E0,8.249777555E-2,-5.125484467E-1,7.469305992E-1,9.096247101E-1
1.379205157E0,1.511655897E-1,-5.153737068E-1,6.727643013E-1,8.608559103E-1
1.384220886E0,1.551557481E-1,-4.518227577E-1,6.524200439E-1,8.086216818E-1
1.389236771E0,3.666162491E-3,-5.347421169E-1,5.947456360E-1,7.998030657E-1
1.394252500E0,3.000812232E-2,-5.918495655E-1,5.306949615E-1,7.955020665E-1
1.399268386E0,1.805254370E-1,-4.990100861E-1,5.294141769E-1,7.495864661E-1
1.404284219E0,8.422447741E-2,-4.379749298E-1,6.072721481E-1,7.534555485E-1
1.409299948E0,-3.556266427E-2,-4.969978333E-1,5.896110535E-1,7.719538482E-1
1.414315834E0,1.032229066E-1,-5.923740864E-1,4.764957428E-1,7.672093714E-1
1.419331563E0,1.843302846E-1,-5.950732231E-1,4.136562347E-1,7.477976165E-1
1.424347448E0,7.424968481E-2,-5.437223911E-1,4.340982437E-1,6.997058950E-1
1.429363282E0,1.252467930E-2,-4.861688614E-1,4.109392166E-1,6.367009260E-1
1.434379011E0,1.085684150E-1,-5.059220791E-1,3.704195023E-1,6.363606356E-1
1.439394896E0,1.208680421E-1,-5.903604031E-1,4.175453186E-1,7.331293080E-1
1.444410625E0,8.762082458E-2,-6.797642708E-1,4.301004410E-1,8.091620740E-1
1.449426511E0,1.331552118E-1,-6.478230953E-1,4.413681030E-1,7.951168943E-1
1.454442344E0,1.668428928E-1,-5.905306339E-1,3.413753510E-1,7.022108734E-1
1.459458073E0,1.702901721E-2,-6.273097992E-1,2.806196213E-1,6.874263186E-1
1.464473959E0,5.186602473E-2,-7.049216032E-1,2.517337799E-1,7.503162314E-1
1.469489688E0,1.460676640E-1,-7.727009058E-1,3.547229767E-1,8.626881490E-1
1.474505573E0,1.273090541E-1,-7.493638992E-1,4.601173401E-1,8.885166377E-1
1.479521407E0,9.240037203E-2,-7.098110914E-1,4.577598572E-1,8.496550483E-1
1.484537136E0,1.001620889E-1,-6.907763481E-1,3.572149277E-1,7.840962388E-1
1.489553021E0,1.462540925E-1,-6.569149494E-1,1.561565399E-1,6.908779742E-1
1.494568750E0,5.843345821E-2,-6.685593724E-1,-3.793048859E-2,6.721791617E-1
1.499584636E0,4.293635488E-2,-6.709713936E-1,-1.751365662E-1,6.947797913E-1
1.504600365E0,9.181766212E-2,-6.358662844E-1,-2.748537064E-1,6.987853566E-1
1.509616250E0,1.047942936E-1,-5.705815554E-1,-2.585582733E-1,6.351358406E-1
1.514632084E0,6.040892005E-2,-5.449380279E-1,-2.484340668E-1,6.019353598E-1
1.519647813E0,1.257309914E-1,-5.193343163E-1,-3.232927322E-1,6.245275054E-1
1.524663698E0,1.378053129E-1,-4.017800391E-1,-4.709234238E-1,6.341816578E-1
1.529679532E0,1.286751330E-1,-3.156581819E-1,-7.506999969E-1,8.244682305E-1
1.534695261E0,7.234358788E-2,-2.475474477E-1,-1.068968773E0,1.099639746E0
1.539711146E0,8.317983150E-2,-1.794541478E-1,-1.291815758E0,1.306870547E0
1.544726875E0,2.040785551E-2,-1.284228563E-1,-1.218982697E0,1.225898742E0
1.549742761E0,-4.437133670E-2,-4.487752318E-1,-9.659166336E-1,1.066003268E0
1.554758490E0,3.135202527E-1,-2.230966091E-1,-5.998764038E-1,7.126841837E-1
1.559774375E0,2.181394696E-1,6.937742233E-3,-5.026645660E-1,5.480005716E-1
1.564790209E0,9.346671402E-2,2.385017276E-1,-9.926691055E-1,1.025188302E0
1.569805938E0,2.719345689E-1,3.626881242E-1,-1.928932190E0,1.981481890E0
1.574821823E0,7.539799809E-2,3.719962835E-1,-2.357353210E0,2.387714441E0
1.579837552E0,-1.464153528E-1,4.542614222E-1,-2.496133804E0,2.541352959E0
1.584853438E0,1.337648630E-1,6.878995895E-1,-2.491303444E0,2.587989902E0
1.589869271E0,2.095157802E-1,8.699810505E-1,-2.278510094E0,2.447932217E0
1.594885000E0,1.531104147E-1,9.217104912E-1,-2.180167198E0,2.371944780E0
1.599900886E0,9.204518795E-2,9.637993574E-1,-2.274034500E0,2.471561131E0
1.604916615E0,1.646209657E-1,1.012511253E0,-2.532790184E0,2.732637044E0
1.609932500E0,1.417640895E-1,1.044182539E0,-2.674060822E0,2.874198238E0
1.614948334E0,4.969364405E-2,1.025750279E0,-2.666991234E0,2.857879517E0
1.619964063E0,9.383776784E-2,1.046723127E0,-2.524024010E0,2.734068769E0
1.624979948E0,1.473320127E-1,1.002389193E0,-2.288493156E0,2.502736850E0
1.629995782E0,9.759327769E-2,9.060589075E-1,-2.030062675E0,2.225223957E0
1.635011511E0,1.764316559E-1,8.424183130E-1,-1.799096107E0,1.994377985E0
1.640027396E0,8.558115363E-2,7.304139137E-1,-1.607460976E0,1.767698902E0
1.645043125E0,7.627660036E-2,6.851043701E-1,-1.541025162E0,1.688177913E0
1.650059011E0,1.717550606E-1,5.926499367E-1,-1.482667923E0,1.605938329E0
1.655074844E0,9.249871969E-2,4.780642986E-1,-1.322839737E0,1.409612165E0
1.660090573E0,5.181238055E-2,3.828539848E-1,-1.114603996E0,1.179662564E0
1.665106459E0,7.567921281E-2,3.289892673E-1,-9.059944153E-1,9.668439180E-1
1.670122188E0,1.584891677E-1,2.624125481E-1,-6.948604584E-1,7.594802290E-1
1.675138073E0,1.189301312E-1,1.813282967E-1,-5.195598602E-1,5.629980245E-1
1.680153802E0,6.543290615E-2,1.547434330E-1,-4.682836533E-1,4.975103770E-1
1.685169688E0,8.127066493E-2,1.228983402E-1,-5.168218613E-1,5.374139552E-1
1.690185521E0,1.305238903E-1,5.277514458E-2,-5.289421082E-1,5.473586170E-1
1.695201250E0,7.684925199E-2,-1.451301575E-2,-4.619045258E-1,4.684786293E-1
1.700217136E0,5.911520123E-2,-4.515004158E-2,-3.614158630E-1,3.689912727E-1
1.705232969E0,1.224167347E-1,-3.656172752E-2,-2.562999725E-1,2.863778846E-1
1.710248698E0,1.138086021E-1,-5.532407761E-2,-1.705312729E-1,2.123536355E-1
1.715264584E0,5.525881052E-2,-9.175884724E-2,-1.112499237E-1,1.544337000E-1
1.720280313E0,6.362167001E-2,-1.363098621E-1,-1.284961700E-1,1.978367032E-1
1.725296198E0,9.342992306E-2,-1.555156708E-1,-1.480703354E-1,2.341774938E-1
1.730312032E0,7.043814659E-2,-1.730947495E-1,-1.198825836E-1,2.220251306E-1
1.735327761E0,6.677278876E-2,-1.934975386E-1,-9.190464020E-2,2.243799582E-1
1.740343646E0,8.708840609E-2,-2.163865566E-1,-4.032516479E-2,2.367142819E-1
1.745359375E0,5.232906342E-2,-2.438699007E-1,2.042198181E-2,2.502557026E-1
1.750375261E0,5.824524164E-2,-2.805352211E-1,9.266853333E-2,3.011311600E-1
1.755391094E0,9.058965743E-2,-2.974716425E-1,1.476936340E-1,3.442517591E-1
1.760406823E0,9.172192216E-2,-2.756050825E-1,1.903333664E-1,3.472720301E-1
1.765422709E0,7.097873092E-2,-2.820949554E-1,1.705455780E-1,3.371962905E-1
1.770438438E0,7.945168018E-2,-2.904429436E-1,1.505260468E-1,3.366418924E-1
1.775454323E0,7.451161742E-2,-3.096067905E-1,1.206302643E-1,3.405290098E-1
1.780470157E0,8.918148279E-2,-5.041913986E-1,1.975297928E-1,5.487989817E-1
1.785485886E0,-1.181349158E-2,-6.693419218E-1,6.219272614E-1,9.137569071E-1
1.790501771E0,-3.569582105E-2,-6.977684498E-1,1.058628082E0,1.268403886E0
1.795517500E0,1.596256495E-1,-6.252125502E-1,1.304694176E0,1.455540440E0
1.800533386E0,2.606275380E-1,-5.590531826E-1,1.379760742E0,1.511359282E0
1.805549219E0,5.344867706E-3,-5.983253717E-1,1.172283173E0,1.316157154E0
1.810564948E0,-5.492040515E-2,-5.794546604E-1,8.192977905E-1,1.005003893E0
1.815580834E0,8.837117255E-2,-4.718927145E-1,5.504674911E-1,7.304154003E-1
1.820596667E0,9.510754049E-2,-4.354343414E-1,5.350236893E-1,6.963467944E-1
1.825612396E0,-2.503517270E-2,-4.511054754E-1,6.171340942E-1,7.648381529E-1
1.830628282E0,4.842007160E-2,-3.665603399E-1,6.270904541E-1,7.279789995E-1
1.835644011E0,1.168909222E-1,-2.567628622E-1,5.436944962E-1,6.125311096E-1
1.840659896E0,1.088415682E-1,-2.177977562E-1,3.815917969E-1,4.526529013E-1
1.845675730E0,2.918478847E-2,-1.811280251E-1,1.745462418E-1,2.532301401E-1
1.850691459E0,5.003809929E-5,-1.496372223E-1,-4.144668579E-2,1.552711453E-1
1.855707344E0,3.614252806E-2,-1.254560947E-1,-1.374883652E-1,1.896010670E-1
1.860723177E0,6.754821539E-2,-1.459349394E-1,-6.625556946E-2,1.739240306E-1
1.865738907E0,5.324578285E-2,-1.960030794E-1,1.430740356E-1,2.484401341E-1
1.870754792E0,8.204501867E-2,-2.154949903E-1,3.587379456E-1,4.264532677E-1
1.875770521E0,1.173227727E-1,-2.356587648E-1,4.375019073E-1,5.105953441E-1
1.880786407E0,8.592829108E-2,-2.446199656E-1,4.155263901E-1,4.897803381E-1
1.885802240E0,7.629029453E-2,-2.142027617E-1,3.432836533E-1,4.117604871E-1
1.890817969E0,1.024386585E-1,-1.925343275E-1,2.257280350E-1,3.138730504E-1
1.895833855E0,6.897410750E-2,-1.964808702E-1,1.489477158E-1,2.560226199E-1
1.900849584E0,5.970060825E-2,-1.948136091E-1,1.342973709E-1,2.440333763E-1
1.905865469E0,9.092019498E-2,-1.924134493E-1,1.505956650E-1,2.607076363E-1
1.910881302E0,1.050258428E-1,-1.699181795E-1,1.762294769E-1,2.663821389E-1
1.915897032E0,5.704295635E-2,-9.203779697E-2,2.016839981E-1,2.289132806E-1
1.920912917E0,5.227184296E-2,-8.788371086E-2,1.600990295E-1,1.899673431E-1
1.925928646E0,7.617150247E-2,-1.119577885E-1,7.315063477E-2,1.539079581E-1
1.930944532E0,3.104439378E-2,-1.713745594E-1,6.272792816E-2,1.851156043E-1
1.935960365E0,9.824067354E-3,-1.227532625E-1,8.565616608E-2,1.500061817E-1
1.940976094E0,4.098436236E-2,-8.113503456E-2,1.036682129E-1,1.378757055E-1
1.945991980E0,5.999112129E-2,-4.199373722E-2,8.099746704E-2,1.091924826E-1
1.951007813E0,3.810846806E-2,-6.778156757E-2,1.304340363E-2,7.884622133E-2
1.956023542E0,7.374475896E-2,-5.138611794E-2,-8.089637756E-2,1.209257892E-1
1.961039427E0,5.649441481E-2,1.132929325E-2,-1.791572571E-1,1.881948314E-1
1.966055157E0,3.688183427E-2,8.407211304E-2,-2.888298035E-1,3.030693737E-1
1.971071042E0,4.592657089E-2,1.635462046E-1,-3.953924179E-1,4.303391396E-1
1.976086875E0,9.568594396E-2,2.062541246E-1,-4.892101288E-1,5.394655818E-1
1.981102605E0,9.033623338E-2,2.191298008E-1,-6.156139374E-1,6.596658431E-1
1.986118490E0,7.537600398E-2,2.616218328E-1,-6.932668686E-1,7.448130480E-1
1.991134219E0,8.442294598E-2,2.429431677E-1,-7.676734924E-1,8.096117634E-1
1.996150105E0,7.917831838E-2,2.372753620E-1,-7.552642822E-1,7.956085341E-1
2.001165938E0,8.347859979E-2,2.164039612E-1,-6.921682358E-1,7.299974094E-1
2.006181667E0,8.778914809E-2,2.000231743E-1,-5.977220535E-1,6.363865634E-1
2.011197552E0,4.880312085E-2,1.477631330E-1,-5.245828629E-1,5.471771816E-1
2.016213386E0,5.785933137E-2,1.318256855E-1,-4.322071075E-1,4.555531774E-1
2.021229115E0,6.242293119E-2,1.213384867E-1,-3.875675201E-1,4.108871297E-1
2.026245000E0,4.270893335E-2,5.234158039E-2,-3.046455383E-1,3.120458268E-1
2.031260834E0,6.159216166E-3,-4.863417149E-2,-2.217836380E-1,2.271369645E-1
2.036276563E0,7.999032736E-3,-1.167029142E-1,-1.891956329E-1,2.224377267E-1
2.041292448E0,2.666434646E-2,-1.729074717E-1,-9.938240051E-2,2.012084557E-1
2.046308177E0,8.807872236E-2,-1.116256714E-1,3.310298920E-2,1.459930126E-1
2.051324063E0,7.046461105E-2,-3.332173824E-2,1.269378662E-1,1.489591270E-1
2.056339896E0,3.146871924E-2,-6.218278408E-2,1.511631012E-1,1.664549852E-1
2.061355625E0,5.717313290E-2,-2.146775723E-1,9.162425995E-2,2.403127799E-1
2.066371511E0,1.347354054E-2,-2.994965315E-1,1.157207489E-1,3.213580564E-1
2.071387344E0,4.178172350E-2,-2.589130402E-1,1.562833786E-1,3.052968542E-1
2.076403073E0,1.104469001E-1,-1.527036428E-1,2.634105682E-1,3.238858560E-1
2.081418959E0,9.278050065E-2,-1.386194229E-1,2.984218597E-1,3.418759601E-1
2.086434792E0,4.894205928E-2,-2.288593054E-1,2.926101685E-1,3.746900286E-1
2.091450521E0,4.824122787E-2,-3.013517857E-1,2.150278091E-1,3.733323901E-1
2.096466407E0,1.089926064E-1,-2.520422935E-1,1.699380875E-1,3.229298059E-1
2.101482136E0,6.731396914E-2,-1.264947653E-1,1.915864944E-1,2.392435599E-1
2.106498021E0,8.531503379E-2,-8.423352242E-2,1.654386520E-1,2.043132127E-1
2.111513855E0,6.298692524E-2,-1.464625597E-1,1.323223114E-1,2.071903189E-1
2.116529584E0,9.828865528E-3,-2.457449436E-1,8.280086517E-2,2.595056207E-1
2.121545469E0,3.331887722E-2,-2.481992245E-1,9.763717651E-2,2.687861991E-1
2.126561302E0,3.996035457E-2,-2.182304859E-1,1.999769211E-1,2.986840201E-1
2.131577032E0,3.952890635E-2,-2.200376987E-1,3.107194901E-1,3.827867877E-1
2.136592917E0,6.035144627E-2,-1.917659044E-1,3.918342590E-1,4.403981673E-1
2.141608750E0,5.477473140E-2,-2.211924791E-1,3.889236450E-1,4.507637804E-1
2.146624480E0,1.595145464E-2,-2.985764742E-1,3.502016068E-1,4.604818403E-1
2.151640365E0,-2.719575167E-2,-2.621382475E-1,2.973365784E-1,3.973224264E-1
2.156656094E0,4.036813974E-3,-1.933999062E-1,2.968940735E-1,3.543528050E-1
2.161671980E0,3.495016694E-2,-2.040077448E-1,3.056812286E-1,3.691634972E-1
2.166687813E0,6.113886833E-3,-3.070998192E-1,3.805427551E-1,4.890403532E-1
2.171703542E0,-3.438621759E-3,-3.452234268E-1,4.330720901E-1,5.538433658E-1
2.176719427E0,6.325533986E-2,-2.949970961E-1,4.966535568E-1,5.811103856E-1
2.181735261E0,1.054628193E-1,-2.261003256E-1,5.332221985E-1,5.887016871E-1
2.186750990E0,6.887918711E-2,-2.195338011E-1,5.050210953E-1,5.549646285E-1
2.191766875E0,4.697959125E-2,-2.678035498E-1,4.173402786E-1,4.980951028E-1
2.196782709E0,4.458326101E-2,-2.828801870E-1,3.514156342E-1,4.533230805E-1
2.201798438E0,4.467779398E-2,-2.795528173E-1,3.427095413E-1,4.445173930E-1
2.206814323E0,6.602117419E-2,-2.150932550E-1,3.408641815E-1,4.084266079E-1
2.211830157E0,8.953288198E-2,-1.585668325E-1,3.599996567E-1,4.034344186E-1
2.216845886E0,4.136806726E-2,-1.105991602E-1,3.406906128E-1,3.605739659E-1
2.221861771E0,-1.797303557E-2,-1.095679998E-1,2.476921082E-1,2.714397853E-1
2.226877605E0,6.806194782E-2,-1.386049986E-1,1.267509460E-1,1.997738138E-1
2.231893334E0,2.007108927E-2,-1.476649046E-1,4.221534729E-2,1.548867593E-1
2.236909219E0,-4.604446888E-2,-1.249885559E-1,5.072021484E-2,1.425299001E-1
2.241924948E0,-4.747802019E-2,-2.857220173E-2,2.337455750E-2,6.014069380E-2
2.246940834E0,5.792914331E-2,3.365039825E-3,2.931213379E-2,6.501007864E-2
2.251956667E0,2.464282513E-2,-6.397461891E-2,2.783966064E-2,7.399369838E-2
2.256972396E0,-3.212973475E-2,-9.709584713E-2,3.568267822E-2,1.083197900E-1
2.261988282E0,-1.490873098E-2,-6.065249443E-2,7.644653320E-3,6.292404997E-2
2.267004115E0,1.446512341E-2,2.353096008E-2,2.232933044E-2,3.551823301E-2
2.272019844E0,8.098006248E-3,8.030176163E-3,2.711963654E-2,2.941999525E-2
2.277035730E0,4.245257378E-2,-1.556327343E-1,6.945419312E-2,1.756350021E-1
2.282051563E0,7.365131378E-2,-2.406772375E-1,1.893844604E-1,3.149865434E-1
2.287067292E0,3.788709641E-2,-1.623327732E-1,2.960262299E-1,3.397335575E-1
2.292083177E0,7.360342145E-2,-4.597043991E-2,2.590141296E-1,2.731649032E-1
2.297098907E0,1.062580496E-1,2.412509918E-2,1.082334518E-1,1.535814885E-1
2.302114792E0,1.035935879E-1,4.084849358E-2,-6.984138489E-2,1.314459962E-1
2.307130625E0,2.722695470E-2,6.779432297E-2,-2.533636093E-1,2.636863588E-1
2.312146355E0,2.953866124E-2,1.188414097E-1,-3.852176666E-1,4.042133890E-1
2.317162240E0,1.313489676E-2,1.768383980E-1,-4.515066147E-1,4.850799600E-1
2.322178073E0,2.809840441E-2,2.414941788E-1,-5.191726685E-1,5.732793546E-1
2.327193907E0,4.027426243E-2,2.462568283E-1,-5.288028717E-1,5.847195215E-1
2.332209636E0,4.974299669E-2,2.773816586E-1,-5.284118652E-1,5.988606261E-1
2.337225521E0,9.412974119E-3,2.297043800E-1,-4.586067200E-1,5.130037328E-1
2.342241250E0,1.032033563E-2,2.253413200E-1,-5.028657913E-1,5.511435602E-1
2.347257136E0,-8.225855231E-2,1.983788013E-1,-5.037164688E-1,5.475864308E-1
2.352272969E0,-4.539462626E-1,4.123449326E-3,-4.946985245E-1,6.714244874E-1
2.357288698E0,-4.729708433E-1,-1.261267662E-1,-7.340469360E-1,8.822892293E-1
2.362304584E0,2.097243518E-1,3.515632153E-1,-9.439640045E-1,1.028906721E0
2.367320417E0,8.701648712E-1,1.046540022E0,-5.011320114E-1,1.450367613E0
2.372336146E0,6.364871264E-1,8.389555216E-1,4.418373108E-3,1.053082025E0
2.377352032E0,-1.920444965E-1,-2.314789295E-1,-1.630182266E-1,3.421089383E-1
2.382367865E0,-3.627483547E-1,-9.187958241E-1,-7.146768570E-1,1.219235476E0
2.387383594E0,1.795993149E-1,-4.587500095E-1,-7.956876755E-1,9.358559516E-1
2.392399480E0,2.642437518E-1,5.958007574E-1,-2.515735626E-1,6.986362146E-1
2.397415313E0,-1.423409581E-2,1.319060326E0,-1.103677750E-1,1.323746123E0
2.402431042E0,1.395025998E-1,9.799329042E-1,-6.031551361E-1,1.159105513E0
2.407446927E0,1.700622737E-1,-2.737030983E-1,-1.024529457E0,1.074008925E0
2.412462761E0,-3.711799085E-1,-1.147540092E0,-7.536010742E-1,1.422159403E0
2.417478490E0,-4.323214293E-1,-5.327258110E-1,-8.845806122E-2,6.917538843E-1
2.422494375E0,3.483586013E-1,8.277232647E-1,3.810367584E-1,9.755349965E-1
2.427510209E0,4.867345691E-1,1.111781001E0,4.428119659E-1,1.291917169E0
2.432525938E0,-3.502883017E-1,-5.353379250E-2,5.775451660E-3,3.544024790E-1
2.437541823E0,-6.011031866E-1,-1.114416599E0,-6.716156006E-1,1.433288845E0
2.442557657E0,-8.678805828E-2,-8.947179317E-1,-6.475915909E-1,1.107893142E0
2.447573386E0,9.121657908E-2,1.618173122E-1,1.709041595E-1,2.524154088E-1
2.452589271E0,-1.299781203E-1,7.043880224E-1,7.729759216E-1,1.053825685E0
2.457605105E0,3.275752068E-3,3.376652002E-1,5.200796127E-1,6.200897690E-1
2.462620834E0,2.337030768E-1,-4.091682434E-1,-8.315086365E-3,4.712800868E-1
2.467636719E0,9.884622693E-2,-8.090786934E-1,-6.726264954E-2,8.178650088E-1
2.472652552E0,-1.381109953E-1,-6.095185280E-1,3.129215240E-1,6.989330177E-1
2.477668282E0,-2.632126212E-2,-5.092406273E-2,6.086940765E-1,6.113873959E-1
2.482684167E0,1.608987302E-1,2.907764912E-1,5.906410217E-1,6.777139409E-1
2.487700000E0,1.709387898E-1,5.607938766E-2,3.588256836E-1,4.013986034E-1
2.492715730E0,5.328622460E-2,-4.845459461E-1,1.121301651E-1,5.001973306E-1
2.497731615E0,5.574628711E-2,-7.083098888E-1,1.354446411E-1,7.232950974E-1
2.502747448E0,2.289743274E-1,-3.433728218E-1,4.499406815E-1,6.105577403E-1
2.507763177E0,1.053209007E-1,9.519338608E-2,7.730026245E-1,7.859308687E-1
2.512779063E0,-6.498971581E-2,1.685380936E-1,6.870031357E-1,7.103534758E-1
2.517794896E0,-2.916225791E-2,-1.193904877E-1,2.597770691E-1,2.873824133E-1
2.522810625E0,4.393458366E-3,-3.335773945E-1,-6.896877289E-2,3.406609344E-1
2.527826511E0,-8.831882477E-2,-3.082878590E-1,-8.402538300E-2,3.315145303E-1
2.532842344E0,-1.045962274E-1,-1.117751598E-1,5.049896240E-2,1.611961611E-1
2.537858073E0,-9.223282337E-3,1.070773602E-1,1.292390823E-1,1.680873892E-1
2.542873959E0,-2.633342147E-2,1.455447674E-1,3.412723541E-2,1.517939281E-1
2.547889792E0,-9.068992734E-2,8.765196800E-2,-9.792613983E-2,1.596779862E-1
2.552905521E0,-4.655957222E-3,-2.306127548E-2,-2.689962387E-1,2.700231042E-1
2.557921407E0,4.573643208E-3,-9.804725647E-2,-3.031158447E-1,3.186116728E-1
2.562937240E0,-4.044660926E-2,-1.366567612E-2,-1.683254242E-1,1.736551967E-1
2.567952969E0,-3.087010980E-2,1.339125633E-1,-4.646682739E-2,1.450679301E-1
2.572968855E0,4.005061090E-2,1.799397469E-1,-1.094055176E-2,1.846674297E-1
2.577984688E0,1.153767258E-1,2.523279190E-2,-6.808662415E-2,1.363241396E-1
2.583000417E0,8.568343520E-2,-7.182025909E-2,-1.222381592E-1,1.656561748E-1
2.588016302E0,7.532577217E-2,-1.260514259E-1,-8.317375183E-2,1.687625756E-1
2.593032136E0,7.437117398E-2,-2.611589432E-2,-5.615615845E-2,9.678132871E-2
2.598047865E0,9.966200590E-2,1.105048656E-1,-2.688026428E-2,1.512163660E-1
2.603063750E0,3.672456741E-2,1.552183628E-1,-7.368373871E-2,1.757006755E-1
2.608079584E0,-2.075335383E-2,8.692455292E-2,-1.554641724E-1,1.793200727E-1
2.613095313E0,1.740390062E-2,-4.075860977E-2,-2.150573730E-1,2.195764872E-1
2.618111198E0,6.260471046E-2,-7.985448837E-2,-1.648750305E-1,1.935971714E-1
2.623127032E0,-9.222358465E-3,-1.064329147E-1,1.777172089E-2,1.082998213E-1
2.628142761E0,-9.690850973E-3,-4.213690758E-2,1.299552917E-1,1.369591524E-1
2.633158646E0,-3.386238217E-2,5.116224289E-3,1.390867233E-1,1.432408925E-1
2.638174480E0,-2.214691043E-2,-3.598213196E-2,1.758861542E-2,4.576635067E-2
2.643190313E0,-5.796098709E-2,-8.171772957E-2,-6.485843658E-2,1.193477279E-1
2.648206042E0,-9.353619814E-2,-7.012581825E-2,-7.538604736E-2,1.391032238E-1
2.653221927E0,-5.268338323E-2,-3.251695633E-2,-6.921100616E-2,9.286040433E-2
2.658237761E0,-1.218488812E-2,2.142763138E-2,-3.741264343E-3,2.493214680E-2
2.663253490E0,1.123243570E-2,1.553750038E-2,5.406951904E-2,5.736806097E-2
2.668269375E0,5.879282951E-3,-6.829905510E-2,6.145954132E-2,9.206846428E-2
2.673285209E0,5.057454109E-4,-1.205136776E-1,3.553771973E-2,1.256452617E-1
2.678300938E0,9.596139193E-3,-9.866571426E-2,1.694107056E-2,1.005684291E-1
2.683316823E0,4.721668363E-2,-3.881072998E-2,5.067920685E-2,7.939817366E-2
2.688332657E0,5.107550323E-2,-3.130722046E-2,8.642673492E-2,1.051590680E-1
2.693348386E0,1.011791825E-2,-5.224347115E-2,7.198429108E-2,8.951810269E-2
2.698364271E0,8.841232955E-2,-5.401206017E-2,4.340839386E-2,1.123313461E-1
2.703380000E0,1.137822121E-1,-6.728339195E-2,6.484889984E-2,1.472373133E-1
2.708395886E0,7.676166296E-2,-7.526183128E-2,1.311302185E-1,1.695636469E-1
2.713411719E0,2.367317677E-3,-8.508419991E-2,1.587553024E-1,1.801337595E-1
2.718427552E0,3.078573942E-2,-4.704689980E-2,1.290969849E-1,1.408091049E-1
2.723443282E0,2.812564373E-2,-5.877566338E-2,7.822418213E-2,1.018069404E-1
2.728459167E0,-3.175681829E-2,-5.367851257E-2,5.149841309E-2,8.088241323E-2
2.733475000E0,-2.926039696E-2,-6.275343895E-2,2.496433258E-2,7.360287244E-2
2.738490730E0,1.606595516E-2,-5.032706261E-2,1.050376892E-2,5.386332061E-2
2.743506615E0,6.185591221E-3,-7.079839706E-3,1.277446747E-2,1.586104310E-2
2.748522448E0,-4.901158810E-2,9.603977203E-3,2.217960358E-2,5.464711301E-2
2.753538177E0,-2.314209938E-2,3.512644768E-2,-3.959369659E-2,5.776750730E-2
2.758554063E0,-3.752252460E-2,4.054164886E-2,-1.196441650E-1,1.317812254E-1
2.763569896E0,-1.849564910E-2,1.874804497E-2,-1.964101791E-1,1.981679507E-1
2.768585730E0,-2.576345205E-2,3.173351288E-2,-2.153215408E-1,2.191669164E-1
2.773601459E0,-1.642730832E-2,5.091381073E-2,-1.935224533E-1,2.007810064E-1
2.778617344E0,-2.839589119E-2,7.853245735E-2,-1.645812988E-1,1.845553506E-1
2.783633177E0,1.758337021E-6,7.644271851E-2,-1.475238800E-1,1.661528946E-1
2.788648907E0,1.610621810E-2,4.971933365E-2,-1.541404724E-1,1.627596622E-1
2.793664792E0,-1.025527716E-3,2.234125137E-2,-1.486387253E-1,1.503118554E-1
2.798680521E0,3.192532063E-2,8.564949036E-3,-1.596136093E-1,1.630002722E-1
2.803696407E0,3.847244382E-2,2.289628983E-2,-1.181602478E-1,1.263574817E-1
2.808712240E0,4.477688670E-2,2.239608765E-2,-7.457828522E-2,8.982469009E-2
2.813728073E0,1.291751862E-3,9.731292725E-3,-4.080295563E-2,4.196722375E-2
2.818743802E0,1.290017366E-2,-2.911853790E-2,-2.865314484E-2,4.284047665E-2
2.823759688E0,3.149846196E-2,-6.770563126E-2,-7.103919983E-3,7.501114110E-2
2.828775521E0,9.425640106E-3,-5.837583542E-2,3.085327148E-2,6.669711548E-2
2.833791250E0,4.375964403E-3,-4.642939568E-2,7.790184021E-2,9.079391255E-2
2.838807136E0,-2.741470933E-2,-4.399037361E-2,9.368419647E-2,1.070674924E-1
2.843822969E0,-4.441034794E-2,-6.540131569E-2,4.998207092E-2,9.352977340E-2
2.848838698E0,-3.284940124E-2,-3.006601334E-2,1.977920532E-3,4.457533499E-2
2.853854584E0,-9.601771832E-3,6.704330444E-3,-8.348274231E-2,8.430012060E-2
2.858870417E0,-4.342120886E-2,1.397204399E-2,-1.348581314E-1,1.423633907E-1
2.863886146E0,-6.271222234E-2,2.038240433E-2,-1.595335007E-1,1.726244568E-1
2.868902032E0,-3.182312846E-2,4.754304886E-3,-1.459093094E-1,1.494149975E-1
2.873917865E0,-8.608251810E-3,-8.955478668E-3,-1.061697006E-1,1.068939097E-1
2.878933594E0,-3.998649120E-2,7.719993591E-4,-6.195259094E-2,7.374034843E-2
2.883949480E0,-2.118819952E-2,1.208519936E-2,-6.308841705E-2,6.763978274E-2
2.888965313E0,3.287157416E-2,1.099109650E-2,-6.176948547E-2,7.082947074E-2
2.893981042E0,3.202137351E-2,-1.896977425E-2,-4.854106903E-2,6.116744297E-2
2.898996927E0,9.857669473E-3,-2.752757072E-2,-1.404094696E-2,3.243592128E-2
2.904012761E0,2.101659775E-2,-1.236379147E-2,-5.950927734E-3,2.509928806E-2
2.909028594E0,5.130383372E-2,-3.048539162E-2,1.389503479E-2,6.127409280E-2
2.914044323E0,2.683264017E-2,-3.661692142E-2,3.592586517E-2,5.789177231E-2
2.919060209E0,2.390302718E-2,-7.810950279E-2,6.482982635E-2,1.042849726E-1
2.924076042E0,4.233549535E-2,-9.751141071E-2,8.864784241E-2,1.384167958E-1
2.929091771E0,3.645837307E-3,-1.138837337E-1,1.192693710E-1,1.649484156E-1
2.934107657E0,-6.231963634E-3,-1.363942623E-1,1.636962891E-1,2.131635692E-1
2.939123490E0,2.420002222E-2,-1.362596750E-1,2.027835846E-1,2.455066645E-1
2.944139323E0,-1.204612851E-2,-1.447463036E-1,1.962537766E-1,2.441559879E-1
2.949155052E0,-1.489353180E-2,-1.215660572E-1,2.062492371E-1,2.398726148E-1
2.954170938E0,1.350979507E-2,-9.286451340E-2,1.898431778E-1,2.117705470E-1
2.959186771E0,-1.329025626E-2,-9.678351879E-2,1.852865219E-1,2.094630651E-1
2.964202500E0,-6.102010608E-2,-1.069171429E-1,1.663446426E-1,2.069426706E-1
2.969218386E0,-3.940317035E-2,-9.261059761E-2,1.521892548E-1,1.824579455E-1
2.974234219E0,-3.601819277E-3,-1.038012505E-1,1.380052567E-1,1.727226782E-1
2.979249948E0,-4.034012556E-3,-8.807861805E-2,1.404342651E-1,1.658188742E-1
2.984265834E0,-4.005882144E-2,-1.145782471E-1,1.498441696E-1,1.928371309E-1
2.989281667E0,-2.808430791E-2,-9.284734726E-2,1.210851669E-1,1.551482385E-1
2.994297396E0,1.448881626E-2,-9.676027298E-2,1.066923141E-1,1.447609275E-1
2.999313282E0,-3.103232384E-2,-8.326065540E-2,1.231422424E-1,1.518530663E-1
3.004329115E0,-4.519280791E-2,-1.023485661E-1,1.226930618E-1,1.660457957E-1
3.009344844E0,2.145645022E-2,-8.493113518E-2,1.363592148E-1,1.620725530E-1
3.014360730E0,1.881454885E-2,-1.140305996E-1,1.758241653E-1,2.104069914E-1
3.019376563E0,4.254624248E-3,-1.035790443E-1,2.384643555E-1,2.600230164E-1
3.024392292E0,-6.071329117E-4,-1.226063967E-1,2.647018433E-1,2.917186366E-1
3.029408177E0,-1.741909981E-2,-1.521772146E-1,2.548999786E-1,2.973807808E-1
3.034424011E0,-2.670460939E-2,-1.397931576E-1,2.449245453E-1,2.832724765E-1
3.039439844E0,-7.537633181E-3,-1.285943985E-1,2.419195175E-1,2.740773398E-1
3.044455573E0,-1.467528939E-2,-1.281895638E-1,2.410955429E-1,2.734501585E-1
3.049471459E0,-2.187296748E-2,-1.100908518E-1,2.353286743E-1,2.607259237E-1
3.054487292E0,-1.924830675E-2,-8.645689487E-2,1.938095093E-1,2.130901637E-1
3.059503021E0,1.978024840E-3,-7.208192348E-2,1.525564194E-1,1.687399697E-1
3.064518907E0,-1.458394527E-2,-3.613924980E-2,8.307838440E-2,9.176467071E-2
3.069534740E0,-2.638387680E-2,4.158854485E-3,2.368640900E-2,3.569945373E-2
3.074550469E0,-7.238060236E-3,4.371201992E-2,-5.413436890E-2,6.995470032E-2
3.079566355E0,-7.292330265E-3,6.130301952E-2,-1.098966599E-1,1.260496495E-1
3.084582188E0,-4.276606441E-2,4.031896591E-2,-1.461257935E-1,1.575033422E-1
3.089597917E0,-3.040266037E-2,6.415069103E-2,-1.392374039E-1,1.562903950E-1
3.094613802E0,1.752290130E-2,3.294515610E-2,-1.062526703E-1,1.126146763E-1
3.099629636E0,-1.836329699E-3,2.544820309E-2,-6.398582458E-2,6.888518632E-2
3.104645365E0,6.263554096E-4,1.086521149E-2,-2.445220947E-2,2.676482187E-2
3.109661250E0,5.267307162E-3,4.365229607E-2,-2.081489563E-2,4.864696657E-2
3.114677084E0,3.494024277E-4,5.210149288E-2,-5.513477325E-2,7.585862419E-2
3.119692917E0,-3.077203035E-2,5.271196365E-2,-8.666801453E-2,1.060038382E-1
3.124708646E0,-9.332835674E-3,4.798281193E-2,-1.463193893E-1,1.542686480E-1
3.129724532E0,2.665325999E-3,4.523301125E-2,-1.460418701E-1,1.529096370E-1
3.134740365E0,-1.884990931E-2,4.898560047E-2,-1.456375122E-1,1.548069543E-1
3.139756094E0,-4.731410742E-2,6.639719009E-2,-1.308832169E-1,1.541999613E-1
3.144771980E0,-1.865503192E-2,8.061850071E-2,-1.351089478E-1,1.584354147E-1
3.149787813E0,-9.485274553E-3,7.476294041E-2,-1.414775848E-1,1.602977689E-1
3.154803646E0,-3.830826283E-2,7.980215549E-2,-1.760797501E-1,1.970786275E-1
3.159819375E0,-2.160111070E-2,9.312593937E-2,-2.244138718E-1,2.439275188E-1
3.164835261E0,-1.469373703E-2,1.333352327E-1,-2.649211884E-1,2.969468408E-1
3.169851094E0,-4.122811556E-2,1.621365547E-1,-3.047761917E-1,3.476730460E-1
3.174866823E0,-3.200593591E-2,1.486629248E-1,-3.392210007E-1,3.717471351E-1
3.179882709E0,1.048265398E-2,1.667822599E-1,-3.659200668E-1,4.022731703E-1
3.184898542E0,-8.806720376E-3,1.566677094E-1,-3.611631393E-1,3.937780373E-1
3.189914271E0,1.005074382E-2,1.497111320E-1,-3.822469711E-1,4.106424082E-1
3.194930157E0,3.069740534E-2,1.346309185E-1,-2.961177826E-1,3.267316270E-1
3.199945990E0,-6.035044789E-2,1.044237614E-1,-2.081584930E-1,2.405752621E-1
3.204961823E0,-6.229618192E-2,5.427002907E-2,-1.990823746E-1,2.155454528E-1
3.209977552E0,6.625306606E-2,4.430329800E-2,-1.591262817E-1,1.779702911E-1
3.214993438E0,3.416906297E-2,5.775809288E-3,-5.538177490E-2,6.533012956E-2
3.220009271E0,-5.469389260E-2,-4.688894749E-2,4.780769348E-3,7.220007645E-2
3.225025000E0,-1.662641764E-2,-2.109193802E-2,-2.005577087E-3,2.693195040E-2
3.230040886E0,4.691851139E-2,-7.705330849E-3,-2.056407928E-2,5.180347663E-2
3.235056719E0,-1.819023490E-2,-1.143896580E-2,-4.842090607E-2,5.297469895E-2
3.240072448E0,-4.695747793E-2,-1.300930977E-2,-7.128620148E-2,8.634795536E-2
3.245088334E0,-8.853316307E-3,-2.878522873E-2,-5.601119995E-2,6.359422240E-2
3.250104167E0,-1.443324983E-2,-3.858613968E-2,-5.925178528E-3,4.162110783E-2
3.255119896E0,3.157387376E-1,6.368803978E-2,-4.158687592E-2,3.247715891E-1
3.260135782E0,-1.202731729E0,-2.250370502E0,1.162167549E0,2.803812480E0
3.265151615E0,-7.704983950E-1,-4.333547115E0,5.187692165E0,6.803340972E0
3.270167344E0,5.029107332E-1,-4.512938023E0,9.724967003E0,1.073287063E1
3.275183230E0,1.373984933E0,-3.373530865E0,1.184671402E1,1.239407835E1
3.280199063E0,7.668764591E-1,-2.174871206E0,8.597379684E0,8.901297754E0
3.285214896E0,4.836835861E-1,-4.243230820E-1,3.158238888E0,3.223115381E0
3.290230625E0,-8.890200853E-1,6.931619644E-1,-1.957983017E0,2.259320189E0
3.295246511E0,-1.327731729E0,8.762756586E-1,-5.837434769E0,6.050320260E0
3.300262344E0,-1.558455825E-2,9.038465023E-1,-7.602024078E0,7.655583026E0
3.305278073E0,3.992019594E-1,8.911547661E-1,-5.744611740E0,5.827013220E0
3.310293959E0,-2.483750582E-1,8.746554852E-1,-2.333304405E0,2.504200838E0
3.315309792E0,-1.580011845E-1,1.233048916E0,-1.389303207E-1,1.250869952E0
3.320325521E0,6.216038465E-1,1.263464212E0,2.267265320E-1,1.426232126E0
3.325341407E0,5.540404320E-1,9.836432934E-1,-4.247951508E-1,1.206219652E0
3.330357240E0,-1.627073288E-1,6.113512516E-1,-1.577022552E0,1.699183380E0
3.335373073E0,-3.926203549E-1,4.763944149E-1,-2.697459221E0,2.767198697E0
3.340388802E0,1.011193544E-1,6.278746128E-1,-2.906825066E0,2.975581223E0
3.345404688E0,1.510986388E-1,1.043699503E0,-2.133881569E0,2.380249987E0
3.350420521E0,-1.805023551E-1,9.765131474E-1,-1.276925087E0,1.617620693E0
3.355436250E0,-1.068260670E-1,7.721838951E-1,-8.002004623E-1,1.117139453E0
3.360452136E0,2.849787474E-2,5.896861553E-1,-7.177858353E-1,9.293860317E-1
3.365467969E0,4.105383456E-1,-1.179165840E-1,-5.200519562E-1,6.729785220E-1
3.370483698E0,-2.961990833E-1,1.438593864E-2,-1.495399475E-1,3.321190270E-1
3.375499584E0,-8.027189970E-2,5.443055630E-1,-3.423843384E-1,6.480271282E-1
3.380515417E0,3.146265149E-1,6.102662086E-1,-7.446422577E-1,1.012870565E0
3.385531250E0,-1.677389145E-1,3.020069599E-1,-8.264513016E-1,8.957490168E-1
3.390546980E0,-5.723602772E-1,-1.304843426E-1,-5.862846375E-1,8.296698902E-1
3.395562865E0,-1.226072907E-1,-7.707567215E-1,2.914314270E-1,8.330850786E-1
3.400578698E0,-5.950065851E-1,1.350442648E0,2.551236153E0,2.947292671E0
3.405594427E0,2.003576279E0,1.577146649E0,2.753153801E0,3.752541180E0
3.410610313E0,1.134202838E0,-3.048079014E-1,8.777256012E-1,1.466194450E0
3.415626146E0,-2.976965189E0,-5.041098595E-1,-3.395423889E0,4.543715646E0
3.420641875E0,3.602726758E-2,1.441173315E0,-5.924336433E0,6.097215813E0
3.425657761E0,1.322607398E0,1.441262007E0,-5.168868065E0,5.526637637E0
3.430673594E0,-1.142918468E0,4.154984951E-1,-2.209506989E0,2.522067159E0
3.435689323E0,-4.571921527E-1,9.263172150E-1,-2.302751541E-1,1.058354805E0
3.440705209E0,1.308964968E0,1.333327293E-1,8.566055298E-1,1.570012719E0
3.445721042E0,3.060709536E-1,-8.266446590E-1,2.101970673E0,2.279320410E0
3.450736875E0,-1.112962842E0,-8.234577179E-1,2.123356819E0,2.534839853E0
3.455752605E0,7.220059633E-1,-1.207327843E-2,1.938953400E0,2.069052600E0
3.460768490E0,3.694762588E-1,-2.251005173E-2,1.381321907E0,1.430059306E0
3.465784323E0,-3.030736148E-1,-3.886198997E-2,1.065788269E-1,3.236092035E-1
3.470800052E0,-3.042721152E-1,-8.035666943E-1,-7.753925323E-1,1.157382621E0
3.475815938E0,-6.978726387E-2,-1.964965820E0,9.258680344E-1,2.173290720E0
3.480831771E0,-9.353170395E-1,-1.958077908E0,3.702360153E0,4.291428406E0
3.485847500E0,4.497141838E-1,-5.632791519E-1,4.488846302E0,4.546346596E0
3.490863386E0,1.124885440E0,2.579379082E-2,3.254763126E0,3.443764740E0
3.495879219E0,9.972637892E-2,1.527163982E-1,8.119153976E-1,8.321503842E-1
3.500894948E0,-8.040444851E-1,1.897039413E-1,-2.027559280E0,2.189399862E0
3.505910834E0,-3.217872977E-1,5.901887417E-1,-3.648918152E0,3.710319864E0
3.510926667E0,-4.802262783E-2,5.803232193E-1,-3.204037666E0,3.256522467E0
3.515942500E0,4.404813051E-3,5.078945160E-1,-1.557539940E0,1.638263381E0
3.520958230E0,1.909869462E-1,9.041168690E-1,-4.493436813E-1,1.027527649E0
3.525974115E0,1.674614549E-1,1.116965532E0,-5.787839890E-1,1.269112385E0
3.530989948E0,4.514405131E-2,1.036044598E0,-1.317504883E0,1.676676925E0
3.536005677E0,-5.193957686E-2,6.253447533E-1,-1.852539062E0,1.955928107E0
3.541021563E0,-2.889576256E-1,7.385635376E-2,-1.587327003E0,1.615103181E0
3.546037396E0,-1.857444346E-1,-2.253026962E-1,-6.629219055E-1,7.243809445E-1
3.551053125E0,9.105163813E-2,-1.828835011E-1,5.120010376E-1,5.512547853E-1
3.556069011E0,2.263425738E-1,-4.638242722E-2,1.367553711E0,1.386933828E0
3.561084844E0,-1.671925187E-2,-1.872906685E-1,1.557801247E0,1.569108681E0
3.566100573E0,-5.837190151E-2,-4.656455517E-1,1.065111160E0,1.163913589E0
3.571116459E0,-1.347601414E-2,-5.573263168E-1,5.507440567E-1,7.836537771E-1
3.576132292E0,-7.667717338E-2,-4.468941689E-1,4.502611160E-1,6.390061500E-1
3.581148125E0,-2.380526066E-2,2.059459686E-2,4.509029388E-1,4.520003187E-1
3.586163855E0,1.955877244E-1,6.072244644E-1,1.465797424E-3,6.379484750E-1
3.591179740E0,1.247739494E-1,8.595314026E-1,-8.768196106E-1,1.234169923E0
3.596195573E0,-4.585817456E-2,9.558150768E-1,-2.024156570E0,2.238949587E0
3.601211302E0,-2.215148807E-1,9.694690704E-1,-2.910639763E0,3.075835326E0
3.606227188E0,1.066225767E-2,1.378479004E0,-3.473769188E0,3.737297208E0
3.611243021E0,7.995760441E-2,1.564598322E0,-3.834510803E0,4.142201616E0
3.616258750E0,1.040387154E-2,1.108998060E0,-3.908869743E0,4.063157345E0
3.621274636E0,-1.741221547E-1,6.079266071E-1,-3.043393135E0,3.108397507E0
3.626290469E0,-2.458893955E-1,4.024140835E-1,-1.947879791E0,2.004154278E0
3.631306302E0,4.418910742E-1,5.532474518E-1,-1.160395622E0,1.359363257E0
3.636322032E0,1.299090385E-1,6.742496490E-1,-6.474704742E-1,9.437727282E-1
3.641337917E0,-8.568447232E-1,-3.422822952E-1,-1.283140182E-1,9.315602700E-1
3.646353750E0,-7.218903303E-1,-2.653715134E0,1.777913570E0,3.274798669E0
3.651369480E0,5.307735205E-1,-3.555935621E0,5.492883682E0,6.564919635E0
3.656385365E0,8.729460239E-1,-1.858467817E0,6.831919670E0,7.133797289E0
3.661401198E0,6.842422485E-1,3.612060547E-1,4.614047527E0,4.678471102E0
3.666416927E0,-1.786828041E-2,6.843583584E-1,6.602439880E-1,9.510981873E-1
3.671432813E0,-8.893796206E-1,-2.954638004E-1,-1.857034683E0,2.080113646E0
3.676448646E0,-1.085864067E0,-1.431943655E0,-1.836160660E0,2.569250741E0
3.681464375E0,-5.533578992E-1,-2.515902519E0,1.030474663E0,2.774499681E0
3.686480261E0,6.142060757E-1,-2.196576834E0,4.640575409E0,5.170796749E0
3.691496094E0,9.357529879E-1,-9.903340340E-1,6.722375870E0,6.859062071E0
3.696511823E0,4.624152184E-1,5.088925362E-2,5.291435242E0,5.311845674E0
3.701527709E0,4.962347448E-2,3.824896812E-1,1.589229107E0,1.635362345E0
3.706543542E0,-4.638812542E-1,9.862852097E-2,-1.801732063E0,1.863102743E0
3.711559375E0,-5.770974159E-1,-2.067761421E-1,-3.672060966E0,3.722879201E0
3.716575105E0,-3.218702376E-1,-3.159239292E-1,-3.245718956E0,3.276904014E0
3.721590990E0,-1.097760499E-1,1.404418945E-1,-1.122789383E0,1.136851224E0
3.726606823E0,1.324314326E-1,5.867228508E-1,9.527921677E-1,1.126762931E0
3.731622552E0,1.898766756E-1,5.980048180E-1,1.733541012E0,1.843590886E0
3.736638438E0,1.913877577E-1,3.474462032E-1,1.062268257E0,1.133914454E0
3.741654271E0,1.180747002E-1,1.809852123E-1,-3.216600418E-1,3.875080185E-1
3.746670000E0,-1.274362504E-1,5.260109901E-2,-1.475110054E0,1.481538574E0
3.751685886E0,-2.565184832E-1,8.611178398E-2,-1.691241264E0,1.712750415E0
3.756701719E0,-2.395677865E-1,1.505346298E-1,-1.024846077E0,1.063185252E0
3.761717448E0,-7.285529375E-2,2.287852764E-1,-1.807880402E-2,2.407850487E-1
3.766733334E0,1.214927882E-1,1.764171124E-1,7.167663574E-1,7.480892368E-1
3.771749167E0,-1.843656301E-1,1.027022958E0,1.152704239E0,1.554829220E0
3.776765000E0,1.259736896E0,1.198903799E0,2.616901398E-1,1.758632734E0
3.781780730E0,3.177994788E-1,7.844543457E-2,-8.749217987E-1,9.341511381E-1
3.786796615E0,-1.939789057E0,-2.136642933E-1,-2.510711670E0,3.179953947E0
3.791812344E0,2.567766607E-2,7.075340748E-1,-3.109513283E0,3.189096528E0
3.796828230E0,8.311825991E-1,3.725891113E-1,-1.678447723E0,1.909679009E0
3.801844063E0,-6.020191908E-1,-5.559756756E-1,6.454887390E-1,1.043164306E0
3.806859792E0,-2.467643023E-1,-3.597278595E-1,1.939130783E0,1.987592752E0
3.811875677E0,8.447088003E-1,1.892497540E-1,1.874201298E0,2.064456086E0
3.816891511E0,3.802920580E-1,8.463335037E-2,1.218070030E0,1.278858652E0
3.821907344E0,-5.579942465E-1,-1.759760380E-1,1.397953033E-1,6.015545461E-1
3.826923073E0,-3.092478216E-1,-8.138823509E-2,-7.836570740E-1,8.463903766E-1
3.831938959E0,1.678293943E-2,-8.714365959E-2,-8.811264038E-1,8.855842275E-1
3.836954792E0,-1.194675565E-1,-3.572945595E-1,-9.971141815E-2,3.897104902E-1
3.841970521E0,-6.110191345E-2,-4.806303978E-1,8.486795425E-1,9.772389621E-1
3.846986407E0,5.964693427E-2,-2.691833973E-1,1.502596378E0,1.527682341E0
3.852002240E0,-2.647066116E-2,-5.450582504E-2,1.435644627E0,1.436922780E0
3.857017969E0,1.075651199E-1,2.545175552E-1,4.669666290E-1,5.425931013E-1
3.862033855E0,1.243952960E-1,7.550349236E-1,-1.190074921E0,1.414860503E0
3.867049688E0,6.001979113E-3,1.046053648E0,-2.895706177E0,3.078859938E0
3.872065417E0,-1.863283515E-1,1.110388994E0,-3.603189468E0,3.775004148E0
3.877081302E0,-3.385981619E-1,6.038095951E-1,-2.904150009E0,2.985518718E0
3.882097136E0,-1.134051979E-1,2.345705032E-1,-1.437923431E0,1.461337694E0
3.887112969E0,1.114180237E-1,3.259544373E-1,1.112546921E-1,3.619915437E-1
3.892128698E0,1.588198543E-1,-5.860948563E-2,1.218560219E0,1.230263315E0
3.897144584E0,2.117599547E-1,-5.909192562E-1,1.659823895E0,1.774554368E0
3.902160417E0,-4.092084765E-1,-6.353664398E-1,1.715737343E0,1.874805782E0
3.907176146E0,2.572724819E-1,-8.328268528E-1,1.228962898E0,1.506698212E0
3.912192032E0,1.363908201E-1,-1.064941168E0,1.403249264E0,1.766864636E0
3.917207865E0,-5.219062567E-1,-3.420758247E-1,1.582670689E0,1.701249106E0
3.922223594E0,4.827215672E-1,1.074075699E-1,1.114692688E0,1.219465574E0
3.927239480E0,4.286839068E-2,2.235949039E-1,6.330795288E-1,6.727719300E-1
3.932255313E0,-5.830521584E-1,1.344769001E-1,-1.239433289E-1,6.110612120E-1
3.937271042E0,1.359695196E-1,4.691758156E-1,-1.026900291E0,1.137162198E0
3.942286927E0,2.623440325E-1,4.879302979E-1,-1.235458374E0,1.353978494E0
3.947302761E0,-6.180699468E-1,-6.070969105E-1,-6.207151413E-1,1.065769396E0
3.952318490E0,-1.053972542E-1,-1.567020416E0,1.038817406E0,1.883030315E0
3.957334375E0,1.383471936E-1,-1.355715752E0,3.370706558E0,3.635762347E0
3.962350209E0,8.345867693E-2,-1.356034040E0,4.813713551E0,5.001762871E0
3.967365938E0,-1.588898897E-1,-1.206401348E0,4.919440746E0,5.067696465E0
3.972381823E0,-6.956899166E-2,-1.499046803E0,3.994919300E0,4.267477167E0
3.977397657E0,-3.902779520E-1,-2.934405565E0,4.389961720E0,5.294791478E0
3.982413490E0,-3.224430382E-1,-3.418656349E0,5.926196098E0,6.849159141E0
3.987429219E0,5.016015768E-1,-3.564706802E0,6.790136814E0,7.685355989E0
3.992445105E0,1.022888660E0,-2.749623299E0,6.064258575E0,6.736613509E0
3.997460938E0,3.525068164E-1,3.693861961E0,4.015207767E0,5.467245253E0
4.002476667E0,3.440408707E0,9.165553093E0,-8.014653206E0,1.265221094E1
4.007492552E0,-1.270616055E0,4.253351212E0,-2.636304092E1,2.673416145E1
4.012508386E0,-6.403020382E0,4.870586395E-1,-2.629398537E1,2.706676121E1
4.017524115E0,-1.356781840E0,-8.406085968E-1,-1.009376240E1,1.021917409E1
4.022540000E0,1.015608430E0,-1.006055355E0,4.483908653E0,4.706277156E0
4.027555834E0,2.030792952E0,-1.433563232E-1,1.560859108E1,1.574080006E1
4.032571563E0,2.582817078E0,1.642526150E0,1.240972710E1,1.278163381E1
4.037587448E0,2.126818419E0,6.676933765E-1,6.138824940E0,6.531029220E0
4.042603282E0,-1.135288715E0,-1.639099121E-1,-3.650341988E0,3.826322458E0
4.047619011E0,-2.099005222E0,1.361747265E0,-8.263861656E0,8.634326147E0
4.052634896E0,-4.669520259E-2,1.995691061E0,-1.124058533E1,1.141646713E1
4.057650730E0,-4.899000525E-1,1.564582825E0,-8.463273048E0,8.620609733E0
4.062666459E0,-6.573519707E-1,6.583828926E-1,-3.193567276E0,3.326327042E0
4.067682344E0,2.359739840E-1,1.915550232E-1,1.199886799E0,1.237782444E0
4.072698177E0,6.624848843E-1,7.376670837E-2,3.751867294E0,3.810621464E0
4.077713907E0,5.187115669E-1,7.103157043E-2,3.847323418E0,3.882783107E0
4.082729792E0,3.779810071E-1,2.437448502E-2,1.821997643E0,1.860951146E0
4.087745625E0,-2.270182967E-2,-6.881618500E-2,-6.597490311E-1,6.637166748E-1
4.092761355E0,-4.291135669E-1,-7.053899765E-2,-2.124198914E0,2.168256264E0
4.097777240E0,-3.378291726E-1,-2.139711380E-2,-2.270208359E0,2.295306598E0
4.102793073E0,-1.340376735E-1,-2.246761322E-2,-1.213709831E0,1.221295397E0
4.107808907E0,4.975509644E-2,-1.484763622E-1,2.553367615E-1,2.995290662E-1
4.112824636E0,1.000033319E-1,-3.299665451E-1,1.425358772E0,1.466467257E0
4.117840521E0,6.755095720E-2,-3.709487915E-1,2.021910667E0,2.056766609E0
4.122856250E0,8.442759514E-2,-3.882865906E-1,1.845751286E0,1.888039275E0
4.127872136E0,5.737376213E-2,-3.942782879E-1,1.097504616E0,1.167588754E0
4.132887969E0,-1.245665252E-1,-1.934878826E-1,3.338670731E-1,4.054893370E-1
4.137903698E0,-1.785142422E-1,-1.925015450E-2,-4.303531647E-1,4.663064973E-1
4.142919584E0,-1.323323846E-1,-3.073883057E-2,-9.469528198E-1,9.566485137E-1
4.147935417E0,-2.366579771E-1,-1.110038757E-1,-6.933450699E-1,7.409832957E-1
4.152951146E0,-1.956405044E-1,-1.361999512E-1,1.796531677E-2,2.390572865E-1
4.157967032E0,-3.060138226E-2,-2.083282471E-1,6.863279343E-1,7.179018989E-1
4.162982865E0,9.250542521E-2,-2.933812141E-1,1.036688805E0,1.081366482E0
4.167998594E0,8.131003380E-2,-3.415508270E-1,1.057665825E0,1.114417016E0
4.173014480E0,-6.167405844E-2,-2.993378639E-1,7.837429047E-1,8.412251701E-1
4.178030313E0,-2.200776339E-2,-2.133650780E-1,3.663311005E-1,4.245085079E-1
4.183046146E0,8.318305016E-3,-1.631522179E-1,1.915931702E-3,1.633753690E-1
4.188061875E0,-8.556705713E-2,-1.509165764E-1,-1.398429871E-1,2.228308671E-1
4.193077761E0,-1.500614285E-1,-1.504142284E-1,-8.310794830E-2,2.281442603E-1
4.198093490E0,-3.046813607E-2,-1.247437000E-1,6.629753113E-2,1.445152609E-1
4.203109375E0,6.497377157E-2,-1.351604462E-1,2.815999985E-1,3.190430948E-1
4.208125209E0,-2.629005909E-2,-1.960468292E-1,4.934158325E-1,5.315869734E-1
4.213141042E0,1.123663783E-2,-1.523809433E-1,5.680446625E-1,5.882354567E-1
4.218156771E0,1.056998968E-2,-1.431455612E-1,4.339771271E-1,4.570979361E-1
4.223172657E0,-5.443045497E-2,-1.732330322E-1,2.876033783E-1,3.401294769E-1
4.228188386E0,-1.004838347E-1,-1.283733845E-1,1.698112488E-1,2.353987831E-1
4.233204271E0,-9.142082930E-2,-1.853919029E-2,1.165447235E-1,1.492787399E-1
4.238220105E0,-6.762972474E-2,2.215170860E-2,5.363845825E-2,8.911544236E-2
4.243235938E0,-6.067276001E-2,2.492690086E-2,2.652835846E-2,7.075512700E-2
4.248251667E0,-5.869629979E-2,-3.216505051E-3,3.047561646E-2,6.621453551E-2
4.253267552E0,-4.236879945E-2,4.996705055E-2,7.028484344E-2,9.608215508E-2
4.258283282E0,-1.645508409E-2,5.737519264E-2,3.123950958E-2,6.736905433E-2
4.263299167E0,-2.424120903E-3,6.676936150E-2,-4.348182678E-2,7.971632993E-2
4.268315000E0,-3.610673547E-2,5.400919914E-2,-9.397602081E-2,1.142461484E-1
4.273330730E0,-2.687612176E-2,1.123504639E-1,-1.178607941E-1,1.650336918E-1
4.278346615E0,-4.027068615E-3,2.412571907E-1,-1.054267883E-1,2.633174074E-1
4.283362448E0,2.070178092E-2,3.843712807E-1,-2.188549042E-1,4.427948896E-1
4.288378177E0,-1.422044635E-2,4.564971924E-1,-5.005054474E-1,6.775674215E-1
4.293394063E0,-2.275219560E-2,4.542260170E-1,-8.852224350E-1,9.952174116E-1
4.298409896E0,-9.629368782E-3,4.462146759E-1,-1.183735847E0,1.265081349E0
4.303425625E0,-8.714902401E-2,4.560532570E-1,-1.305226326E0,1.385350240E0
4.308441511E0,-3.282716870E-2,4.574334621E-1,-1.331290245E0,1.408068433E0
4.313457344E0,9.253352880E-3,4.555366039E-1,-1.238339424E0,1.319501327E0
4.318473073E0,1.778551936E-2,4.271380901E-1,-1.110535622E0,1.189980101E0
4.323488959E0,-1.905924082E-2,3.631601334E-1,-1.019898415E0,1.082793292E0
4.328504792E0,-1.735624671E-2,2.977266312E-1,-9.140596390E-1,9.614818822E-1
4.333520521E0,-5.676239729E-3,2.032141685E-1,-7.934646606E-1,8.190936367E-1
4.338536407E0,-1.531407237E-2,6.698703766E-2,-5.511131287E-1,5.553804683E-1
4.343552240E0,-1.572367549E-2,4.082369804E-2,-1.994504929E-1,2.041918397E-1
4.348567969E0,-2.356177568E-2,-4.010438919E-3,7.711124420E-2,8.073032191E-2
4.353583855E0,-2.622988820E-2,-9.318280220E-2,2.043552399E-1,2.261240936E-1
4.358599688E0,-1.933914423E-2,-1.973800659E-1,2.492923737E-1,3.185585982E-1
4.363615417E0,-5.129143596E-2,-2.229206562E-1,3.554239273E-1,4.226707921E-1
4.368631302E0,-8.069017529E-2,-1.842980385E-1,4.127168655E-1,4.591425514E-1
4.373647136E0,-6.397596002E-2,-2.201414108E-1,3.710050583E-1,4.361191552E-1
4.378662865E0,-1.078960299E-2,-3.081030846E-1,3.354644775E-1,4.556098572E-1
4.383678750E0,-5.101102591E-2,-4.752936363E-1,5.305213928E-1,7.141142162E-1
4.388694584E0,-7.908970118E-2,-4.980902672E-1,9.173955917E-1,1.046882881E0
4.393710313E0,2.169895172E-2,-4.882116318E-1,1.242256165E0,1.334923901E0
4.398726198E0,7.673197985E-2,-5.003621578E-1,1.435820580E0,1.522442387E0
4.403742032E0,1.439237595E-2,-4.532911777E-1,1.460066795E0,1.528880335E0
4.408757761E0,-1.252108812E-2,-3.526437283E-1,1.348924637E0,1.394314187E0
4.413773646E0,-3.063121438E-2,-1.355795860E-1,1.162779808E0,1.171058059E0
4.418789480E0,-3.480958939E-2,1.831541061E-1,7.612991333E-1,7.837942998E-1
4.423805209E0,-4.100376368E-2,3.997201920E-1,1.406526566E-1,4.257237488E-1
4.428821094E0,-7.214727998E-2,3.067729473E-1,-5.717391968E-1,6.528403942E-1
4.433836927E0,-9.251722693E-2,7.428908348E-2,-9.620647430E-1,9.693538441E-1
4.438852657E0,-1.049682200E-1,-7.372593880E-2,-7.967519760E-1,8.070114947E-1
4.443868542E0,-5.556979775E-2,1.183366776E-2,-3.349466324E-1,3.397311947E-1
4.448884375E0,2.867877483E-2,1.901867390E-1,7.614231110E-2,2.068601444E-1
4.453900105E0,3.100226820E-2,3.694117069E-1,1.187696457E-1,3.892716000E-1
4.458915990E0,-5.479708314E-2,5.214463472E-1,-2.301397324E-1,5.726022265E-1
4.463931719E0,-5.367982388E-2,5.923998356E-1,-7.115898132E-1,9.274584363E-1
4.468947605E0,7.587075233E-3,6.847437620E-1,-1.064713478E0,1.265917207E0
4.473963438E0,-2.219700813E-2,6.834895611E-1,-1.148593903E0,1.336756762E0
4.478979167E0,2.653658390E-2,7.297669649E-1,-1.111850739E0,1.330216553E0
4.483995052E0,2.477326989E-2,6.633292437E-1,-1.083837509E0,1.270953637E0
4.489010886E0,-6.501635909E-2,4.198137522E-1,-1.153118134E0,1.228882477E0
4.494026615E0,-7.072007656E-2,2.105745077E-1,-1.083072662E0,1.105617178E0
4.499042500E0,2.733169198E-1,4.438574314E-1,-8.217029572E-1,9.730916236E-1
4.504058334E0,9.633241594E-2,4.483776093E-1,-3.814048767E-1,5.964831052E-1
4.509074063E0,-5.803203583E-2,4.653364420E-1,-1.425075531E-1,4.901164393E-1
4.514089948E0,-5.644321442E-2,4.025007486E-1,-4.321994781E-1,5.932866744E-1
4.519105782E0,-3.923267126E-2,8.531498909E-2,-9.127445221E-1,9.175622118E-1
4.524121511E0,-3.792980313E-2,-1.351848841E-1,-9.481849670E-1,9.585240501E-1
4.529137396E0,-8.430424333E-2,-1.321463585E-1,-4.318876266E-1,4.594527044E-1
4.534153230E0,-4.063886404E-2,-2.818262577E-2,2.861166000E-1,2.903592370E-1
4.539168959E0,4.763960838E-2,1.988983154E-1,7.894744873E-1,8.155366566E-1
4.544184844E0,4.667496681E-2,3.041962385E-1,8.490858078E-1,9.031393099E-1
4.549200573E0,-2.571174502E-2,2.194318175E-1,4.944114685E-1,5.415294235E-1
4.554216459E0,-1.094377637E-1,9.656512737E-2,3.460025787E-2,1.499954192E-1
4.559232292E0,-7.943773270E-2,-1.526160240E-1,-2.959337234E-1,3.423138514E-1
4.564248021E0,-5.608955026E-2,-3.519699574E-1,-1.961975098E-1,4.068443822E-1
4.569263907E0,-1.127925515E-2,-3.035074472E-1,3.115959167E-1,4.351275761E-1
4.574279740E0,5.424253643E-2,-1.354553699E-1,9.256229401E-1,9.370529532E-1
4.579295469E0,5.656775832E-2,8.979386091E-2,1.186743736E0,1.191479561E0
4.584311355E0,-3.769117594E-2,2.269016504E-1,1.004754066E0,1.030745224E0
4.589327188E0,-1.167876422E-1,2.999239564E-1,4.736537933E-1,5.726618976E-1
4.594342917E0,-2.987712622E-2,2.455197573E-1,-1.023483276E-1,2.676710183E-1
4.599358802E0,-4.309535027E-3,8.580821753E-2,-3.430538177E-1,3.536488996E-1
4.604374636E0,1.467475295E-2,3.741377592E-2,-1.054992676E-1,1.128947938E-1
4.609390365E0,8.837902546E-2,5.620920658E-2,3.083763123E-1,3.256781801E-1
4.614406250E0,8.182981610E-2,1.040591598E-1,7.047195435E-1,7.170453699E-1
4.619421980E0,3.727111220E-2,2.470758855E-1,7.153568268E-1,7.577407331E-1
4.624437865E0,6.442040205E-2,3.092813492E-1,3.623943329E-1,4.807645928E-1
4.629453698E0,-6.536865234E-2,2.568675280E-1,2.408218384E-2,2.661464620E-1
4.634469427E0,-6.318062544E-2,2.173077166E-1,-1.298418045E-1,2.609086609E-1
4.639485313E0,-4.691872001E-2,2.628895640E-1,-3.965377808E-3,2.670730488E-1
4.644501146E0,-1.144776344E-1,1.813547909E-1,2.483062744E-1,3.281016533E-1
4.649516875E0,-4.776072502E-2,1.499973834E-1,4.235687256E-1,4.518747251E-1
4.654532761E0,-5.068600178E-3,1.216157675E-1,5.147428513E-1,5.289388325E-1
4.659548594E0,-4.871740937E-2,2.276270539E-1,6.702098846E-1,7.094848491E-1
4.664564323E0,-4.768699408E-2,5.461101532E-1,7.153987885E-1,9.012800760E-1
4.669580209E0,-3.827273846E-3,7.663995624E-1,4.496564865E-1,8.885797055E-1
4.674595938E0,-7.397297025E-2,6.747802496E-1,-1.184749603E-2,6.789261733E-1
4.679611823E0,-8.571016788E-2,4.482884705E-1,-3.341150284E-1,5.656338373E-1
4.684627657E0,-1.851350069E-3,3.441473544E-1,-2.734365463E-1,4.395547450E-1
4.689643386E0,8.114862442E-2,4.586598873E-1,1.051464081E-1,4.775036739E-1
4.694659271E0,4.308572412E-2,6.858243942E-1,3.780517578E-1,7.843051772E-1
4.699675105E0,1.681423187E-2,7.842395306E-1,1.843719482E-1,8.057961125E-1
4.704690834E0,4.566150904E-2,7.878012061E-1,-3.533315659E-1,8.646148907E-1
4.709706719E0,8.303016424E-3,8.674631715E-1,-8.233776093E-1,1.196040125E0
4.714722552E0,-5.252659321E-4,9.338195324E-1,-1.094342232E0,1.438611871E0
4.719738282E0,3.106638789E-2,1.115552902E0,-1.185656548E0,1.628252083E0
4.724754167E0,5.501747131E-3,1.154063821E0,-1.224370956E0,1.682550983E0
4.729770000E0,-7.388651371E-3,1.011136532E0,-1.301521301E0,1.648153323E0
4.734785730E0,1.617375016E-2,7.550817132E-1,-1.304783821E0,1.507604326E0
4.739801615E0,-2.739250660E-2,5.646318793E-1,-1.105191231E0,1.241373097E0
4.744817344E0,-8.333653212E-2,5.631898046E-1,-6.839094162E-1,8.898650589E-1
4.749833230E0,-4.183003306E-2,6.367989182E-1,-3.472976685E-1,7.265523274E-1
4.754849063E0,-6.774824858E-2,6.280910969E-1,-1.909132004E-1,6.599515901E-1
4.759864792E0,-1.342804432E-1,5.014341474E-1,-1.906518936E-1,5.530059548E-1
4.764880677E0,-1.312389076E-1,3.629015684E-1,-1.645803452E-1,4.195329418E-1
4.769896407E0,-6.036260724E-2,1.399947405E-1,1.405525208E-2,1.531003652E-1
4.774912292E0,2.339005470E-3,2.073067427E-2,3.643684387E-1,3.649651914E-1
4.779928125E0,-1.487022638E-2,3.199678659E-2,8.001680374E-1,8.009455700E-1
4.784943855E0,-3.708899021E-3,1.710964441E-1,9.459838867E-1,9.613393069E-1
4.789959740E0,-2.336078882E-2,2.648537159E-1,8.499746323E-1,8.905897444E-1
4.794975573E0,-9.062898159E-2,1.050071716E-1,6.057167053E-1,6.213958847E-1
4.799991302E0,2.142906189E-2,6.259256601E-2,5.601634979E-1,5.640568929E-1
4.805007188E0,1.308299899E-1,2.544999123E-1,7.035303116E-1,7.595008828E-1
4.810023021E0,7.218635082E-2,4.216431379E-1,7.582025528E-1,8.705543728E-1
4.815038750E0,-9.668061137E-2,3.240820169E-1,5.759725571E-1,6.679226608E-1
4.820054636E0,-2.279430628E-2,1.929574013E-1,3.100214005E-1,3.658762193E-1
4.825070365E0,1.396889091E-1,2.362036705E-1,1.087083817E-1,2.951655087E-1
4.830086250E0,1.060538590E-1,3.011677265E-1,2.111291885E-1,3.827857818E-1
4.835102084E0,-4.531431198E-2,2.807648182E-1,3.109350204E-1,4.213820795E-1
4.840117813E0,1.820111275E-2,4.134809971E-1,3.913087845E-1,5.695791256E-1
4.845133698E0,1.683494449E-2,6.238368750E-1,3.277778625E-1,7.049072202E-1
4.850149427E0,-6.560882926E-2,6.742967367E-1,8.930873871E-2,6.833422703E-1
4.855165313E0,-1.352334023E-1,5.647292137E-1,-1.948518753E-1,6.125148253E-1
4.860181146E0,-1.307816803E-1,4.607919455E-1,-2.280836105E-1,5.305235134E-1
4.865196875E0,4.555583000E-4,5.542439222E-1,-2.261829376E-2,5.547054354E-1
4.870212761E0,1.632985473E-2,6.680970192E-1,1.558570862E-1,6.862300799E-1
4.875228594E0,-1.323520541E-1,4.175059795E-1,1.901903152E-1,4.774941520E-1
4.880244323E0,-8.431926370E-2,4.275250435E-2,8.066844940E-2,1.242775667E-1
4.885260209E0,1.812872887E-1,2.851033211E-1,2.698144913E-1,4.323758139E-1
4.890275938E0,8.993113041E-2,5.133315325E-1,5.063381195E-1,7.266189935E-1
4.895291823E0,-1.695218980E-1,5.101650953E-1,5.989656448E-1,8.048390784E-1
4.900307657E0,-2.079129517E-1,2.515625954E-1,4.879865646E-1,5.870625368E-1
4.905323386E0,7.712462544E-2,-4.907727242E-2,3.219671249E-1,3.346933164E-1
4.910339271E0,2.470590770E-1,-2.775347233E-2,4.932489395E-1,5.523612578E-1
4.915355105E0,7.433274388E-2,1.149969101E-1,7.074899673E-1,7.206189701E-1
4.920370834E0,-8.687400818E-2,2.089557648E-1,8.498325348E-1,8.794458153E-1
4.925386719E0,-5.829980969E-2,2.318785191E-1,7.695341110E-1,8.058221041E-1
4.930402448E0,8.096438646E-2,2.435564995E-1,6.581583023E-1,7.064328356E-1
4.935418334E0,1.247587204E-1,2.825903893E-1,7.382116318E-1,8.002365149E-1
4.940434167E0,-3.744703531E-2,3.496162891E-1,9.044389725E-1,9.703832671E-1
4.945449896E0,-1.525359750E-1,3.751461506E-1,1.070668221E0,1.144697469E0
4.950465782E0,-7.360479236E-2,3.704490662E-1,9.569482803E-1,1.028785783E0
4.955481615E0,-2.390488982E-2,3.127694130E-1,6.829051971E-1,7.515022673E-1
4.960497344E0,-7.188031077E-2,2.183215618E-1,4.039783478E-1,4.647898330E-1
4.965513230E0,-1.343384683E-1,1.177792549E-1,1.272401810E-1,2.193372759E-1
4.970528959E0,-8.169895411E-2,1.926417351E-1,6.061649323E-2,2.178529698E-1
4.975544844E0,-6.248486042E-2,1.705155373E-1,4.612064362E-2,1.873686740E-1
4.980560677E0,1.165014505E-2,1.546087265E-1,1.578683853E-1,2.212736118E-1
4.985576407E0,-1.205140352E-2,2.076690197E-1,4.101839066E-1,4.599157480E-1
4.990592292E0,3.551420569E-2,3.108003139E-1,6.188812256E-1,6.934493964E-1
4.995608021E0,-1.554933190E-2,3.540010452E-1,7.720756531E-1,8.495053477E-1
5.000623907E0,-6.212896109E-2,3.225750923E-1,7.214527130E-1,7.927223443E-1
5.005639740E0,-6.779208779E-2,2.227909565E-1,5.004196167E-1,5.519523261E-1
5.010655469E0,3.712522984E-2,2.071239948E-1,3.169832230E-1,3.804694410E-1
5.015671355E0,9.893815219E-2,2.111372948E-1,2.428779602E-1,3.366859349E-1
5.020687188E0,1.432558894E-2,1.848559380E-1,2.756443024E-1,3.321998220E-1
5.025702917E0,-3.156155348E-2,1.259729862E-1,2.931518555E-1,3.206295920E-1
5.030718802E0,-1.170873642E-3,8.913874626E-2,1.876831055E-1,2.077788129E-1
5.035734532E0,1.521432400E-2,-9.174108505E-3,1.506814957E-1,1.517252552E-1
5.040750417E0,-4.032224417E-3,-1.579308510E-2,1.222677231E-1,1.233494081E-1
5.045766250E0,-4.720017314E-2,-6.167006493E-2,2.604522705E-1,2.717838083E-1
5.050781980E0,-1.848733425E-2,-1.909327507E-2,4.601240158E-1,4.608909248E-1
5.055797865E0,-7.855761051E-2,-9.782314301E-3,6.950340271E-1,6.995279056E-1
5.060813594E0,-1.579314470E-1,-7.635617256E-2,8.481159210E-1,8.660676778E-1
5.065829480E0,-1.702713966E-2,-2.303111553E-1,9.100484848E-1,9.388937088E-1
5.070845209E0,9.517554939E-2,-3.632028103E-1,9.505929947E-1,1.022057586E0
5.075861094E0,1.359357089E-1,-3.524134159E-1,1.115940094E0,1.178132431E0
5.080876927E0,-4.446676373E-2,-5.036940575E-1,1.183860302E0,1.287326769E0
5.085892657E0,-3.933112621E-1,-5.297307968E-1,1.439154148E0,1.583184490E0
5.090908542E0,-2.659133971E-1,-5.315413475E-1,1.228651047E0,1.364855133E0
5.095924375E0,1.126404256E-1,-6.248352528E-1,8.275651932E-1,1.043058535E0
5.100940105E0,1.559829712E-2,-7.925496101E-1,7.646751404E-1,1.101411032E0
5.105955990E0,5.220502615E-2,-8.494832516E-1,8.176898956E-1,1.180238927E0
5.110971719E0,1.685248166E-1,-8.594088554E-1,1.094477654E0,1.401736612E0
5.115987605E0,-7.722443342E-2,-7.552957535E-1,1.547108650E0,1.723363126E0
5.121003438E0,-4.223293364E-1,-5.802872181E-1,1.869394779E0,2.002431563E0
5.126019167E0,-1.688736081E-1,-5.645847321E-1,1.707342625E0,1.806181899E0
5.131035052E0,7.741990685E-2,-7.216415405E-1,1.273630142E0,1.465910671E0
5.136050782E0,1.900958121E-1,-7.458612919E-1,1.001086235E0,1.262782299E0
5.141066667E0,1.955128908E-1,-6.585931778E-1,9.470653534E-1,1.170001303E0
5.146082396E0,-1.135330498E-1,-5.339584351E-1,1.128162861E0,1.253296774E0
5.151098282E0,-2.281160951E-1,-4.868843555E-1,1.166203022E0,1.284181769E0
5.156114115E0,-1.251740158E-1,-5.282018185E-1,9.292430878E-1,1.076177686E0
5.161129844E0,-1.877695322E-1,-4.698343277E-1,8.762874603E-1,1.011870251E0
5.166145730E0,8.734583855E-3,-4.501736164E-1,7.059822083E-1,8.373430935E-1
5.171161563E0,1.041718870E-1,-4.576032162E-1,5.522241592E-1,7.247096022E-1
5.176177292E0,-5.829769373E-2,-5.539836884E-1,6.135559082E-1,8.287022388E-1
5.181193177E0,1.708710194E-2,-5.691597462E-1,6.004981995E-1,8.275462968E-1
5.186208907E0,-1.299337149E-1,-6.003344059E-1,8.077268600E-1,1.014744721E0
5.191224792E0,-3.512145281E-1,-7.352490425E-1,9.771580696E-1,1.272313127E0
5.196240625E0,9.517952800E-2,-7.074003220E-1,8.784494400E-1,1.131877987E0
5.201256355E0,6.553529203E-2,-6.054580212E-1,1.119344711E0,1.274286809E0
5.206272240E0,-1.685101986E-1,-7.479014397E-1,2.050683498E0,2.189304698E0
5.211287969E0,-1.864471287E-1,-1.088070631E0,2.908201694E0,3.110674738E0
5.216303855E0,1.227645725E-1,-1.059101343E0,3.713461876E0,3.863491413E0
5.221319688E0,1.924653500E-1,-9.527885914E-1,3.482837677E0,3.615937955E0
5.226335417E0,6.607569754E-2,-1.118932486E0,2.459955692E0,2.703286502E0
5.231351302E0,-2.101309001E-1,-1.395101309E0,9.408497810E-1,1.695777393E0
5.236367032E0,1.015453488E-1,-1.330694914E0,-5.599021912E-2,1.335737742E0
5.241382917E0,1.514096260E-1,-1.099895000E0,-1.028099060E-1,1.115017383E0
5.246398750E0,-2.032556385E-1,-9.773030281E-1,6.715917587E-1,1.203108288E0
5.251414480E0,-4.134165049E-1,-1.129748821E0,1.853923321E0,2.210040109E0
5.256430365E0,-1.155537367E-1,-1.315959454E0,2.510766983E0,2.837085264E0
5.261446094E0,2.174949199E-1,-1.341835260E0,3.087704659E0,3.373684331E0
5.266461980E0,2.551540434E-1,-1.312164068E0,3.169049740E0,3.439440998E0
5.271477709E0,6.962236762E-2,-1.337342978E0,2.538869858E0,2.870399566E0
5.276493594E0,-1.310724169E-1,-1.182097197E0,1.485520840E0,1.902972918E0
5.281509427E0,-1.586777717E-1,-1.104662895E0,3.026075363E-1,1.156300164E0
5.286525157E0,-1.088203788E-1,-1.194284916E0,-5.772895813E-1,1.330947631E0
5.291541042E0,-1.108806282E-1,-1.265839577E0,-6.041841507E-1,1.407012024E0
5.296556771E0,9.712398052E-3,-1.207008600E0,3.784751892E-2,1.207640893E0
5.301572657E0,-6.837378442E-2,-1.004760981E0,8.703889847E-1,1.331088497E0
5.306588490E0,-1.080787778E-1,-1.255129337E0,1.175605297E0,1.723101416E0
5.311604219E0,1.289446652E-1,-1.280385494E0,1.063303947E0,1.669319929E0
5.316620105E0,1.766015291E-1,-1.196054220E0,7.585115433E-1,1.427260859E0
5.321635834E0,-2.235148847E-1,-1.208133698E0,3.595256805E-1,1.280158057E0
5.326651719E0,-4.202467501E-1,-1.288426161E0,8.134365082E-2,1.357669360E0
5.331667552E0,2.139720917E-1,-1.333855391E0,-6.199760437E-1,1.486379680E0
5.336683282E0,4.482040405E-1,-1.120001554E0,-7.827968597E-1,1.438075543E0
5.341699167E0,2.528207004E-1,-1.193853378E0,-7.589168549E-1,1.437066104E0
5.346714896E0,-5.032603741E-1,-1.486580372E0,-3.613576889E-1,1.610519042E0
5.351730782E0,-4.255568385E-1,-1.694313288E0,1.808547974E-1,1.756275775E0
5.356746511E0,2.371853590E-2,-1.845267773E0,4.685173035E-1,1.903965385E0
5.361762396E0,5.494390130E-1,-2.142228842E0,8.225193024E-1,2.359568953E0
5.366778230E0,2.310300916E-1,-2.260853529E0,1.186055660E0,2.563505727E0
5.371793959E0,-3.654674292E-1,-2.206860542E0,2.046424866E0,3.031774171E0
5.376809844E0,-7.370601892E-1,-2.374405384E0,2.205389023E0,3.323371690E0
5.381825573E0,-3.364821374E-1,-2.677207947E0,1.657876015E0,3.166893667E0
5.386841459E0,6.680874825E-1,-2.570030689E0,5.685682297E-1,2.715634081E0
5.391857292E0,6.712615490E-1,-2.462525368E0,-2.729082108E-1,2.566924647E0
5.396873021E0,-3.379794359E-1,-2.425407171E0,-3.690023422E-1,2.476487992E0
5.401888907E0,-1.031496525E0,-2.483057022E0,3.631210327E-2,2.689028788E0
5.406904636E0,-3.877815008E-1,-2.548504591E0,3.664932251E-1,2.603760248E0
5.411920521E0,4.097165763E-1,-2.802994251E0,5.572538376E-1,2.887070537E0
5.416936250E0,4.028729796E-1,-2.770651817E0,8.597455025E-1,2.928818953E0
5.421952136E0,-3.024164587E-2,-2.788434982E0,1.097111225E0,2.996654342E0
5.426967969E0,-3.116675615E-1,-2.644687176E0,9.699678421E-1,2.834139118E0
5.431983698E0,-3.682448864E-1,-2.595013142E0,4.204578400E-1,2.654521105E0
5.436999584E0,2.125919461E-1,-2.476701736E0,-4.754695892E-1,2.530873003E0
5.442015313E0,6.648711115E-2,-2.563509941E0,-9.742107391E-1,2.743189807E0
5.447031198E0,-9.103644639E-2,-2.664798498E0,-8.866977692E-1,2.809923772E0
5.452047032E0,-1.146292537E-1,-2.606928349E0,-4.712619781E-1,2.651660448E0
5.457062761E0,-1.202199459E-1,-2.528751373E0,-2.719116211E-2,2.531753484E0
5.462078646E0,5.889803544E-2,-2.450424194E0,-1.001482010E-1,2.453176996E0
5.467094375E0,7.983263582E-3,-2.438113689E0,-5.801696777E-1,2.506204092E0
5.472110261E0,-2.382863462E-1,-2.521062851E0,-1.055731773E0,2.743557519E0
5.477125990E0,-2.709675431E-1,-2.569463253E0,-1.359205246E0,2.919418387E0
5.482141875E0,-1.025272310E-1,-2.517762423E0,-1.332551003E0,2.850496733E0
5.487157709E0,-6.900899112E-2,-2.375160694E0,-1.207912445E0,2.665558673E0
5.492173438E0,-9.547707438E-2,-2.409248829E0,-1.104835510E0,2.652217430E0
5.497189323E0,-1.678046435E-1,-2.517670155E0,-1.162258148E0,2.778068647E0
5.502205052E0,-1.178925484E-1,-2.590204954E0,-1.332102776E0,2.915057146E0
5.507220938E0,9.552165866E-2,-2.688764095E0,-1.578238487E0,3.119200774E0
5.512236667E0,-4.478017241E-2,-2.683922052E0,-1.563319206E0,3.106349914E0
5.517252552E0,-2.231375128E-1,-2.842122078E0,-1.229703903E0,3.104773735E0
5.522268386E0,-1.108846068E-1,-2.952513695E0,-8.398141861E-1,3.071631550E0
5.527284115E0,-8.860784769E-2,-3.035473824E0,-5.559091568E-1,3.087229774E0
5.532300000E0,5.682675913E-2,-2.909177303E0,-2.822380066E-1,2.923388471E0
5.537315730E0,2.376264334E-1,-2.601521015E0,-6.912746429E-1,2.702265447E0
5.542331615E0,1.212804914E-1,-2.375857353E0,-1.446009636E0,2.783945220E0
5.547347448E0,-2.481586337E-1,-2.398639202E0,-2.180768013E0,3.251276958E0
5.552363177E0,-2.670345902E-1,-2.485242844E0,-2.570322037E0,3.585288669E0
5.557379063E0,-4.230660200E-2,-2.500087976E0,-2.389800072E0,3.458811085E0
5.562394792E0,1.193285882E-1,-2.398872375E0,-1.804487228E0,3.004164134E0
5.567410677E0,1.078713760E-1,-2.284595013E0,-1.470134735E0,2.718879686E0
5.572426407E0,-8.313164115E-2,-2.192530155E0,-1.537717819E0,2.679305030E0
5.577442292E0,-1.879783571E-1,-2.169111729E0,-1.978407860E0,2.941849625E0
5.582458125E0,4.229858518E-3,-2.128819227E0,-2.502622604E0,3.285575915E0
5.587473855E0,-1.927431673E-2,-2.122311831E0,-2.811506271E0,3.522661851E0
5.592489740E0,-2.334649488E-2,-2.084590435E0,-2.802379608E0,3.492763062E0
5.597505469E0,-8.042427152E-2,-2.146471262E0,-2.709765434E0,3.457836846E0
5.602521355E0,-7.784525305E-2,-2.101846218E0,-2.509773254E0,3.274565497E0
5.607537084E0,-6.046712399E-3,-2.084526300E0,-2.472693443E0,3.234114921E0
5.612552969E0,-1.872338355E-3,-2.015816689E0,-2.447783470E0,3.170987913E0
5.617568698E0,-9.301121533E-2,-1.991458654E0,-2.475698471E0,3.178622591E0
5.622584584E0,3.565563262E-2,-1.856279612E0,-2.668862343E0,3.251133883E0
5.627600417E0,-5.118474364E-3,-1.892628670E0,-2.895575523E0,3.459252389E0
5.632616146E0,5.955514312E-2,-1.775156856E0,-2.978889465E0,3.468214400E0
5.637632032E0,-3.822252154E-2,-1.718904972E0,-3.052817345E0,3.503682206E0
5.642647761E0,-6.174584478E-2,-1.618035316E0,-2.947507858E0,3.362982814E0
5.647663646E0,-6.764551252E-2,-1.703637600E0,-2.878213882E0,3.345305986E0
5.652679480E0,1.971143484E-2,-1.771841764E0,-2.792284966E0,3.307063215E0
5.657695209E0,-9.116851538E-2,-1.831329226E0,-2.529423714E0,3.124109914E0
5.662711094E0,-1.237370595E-1,-1.671026826E0,-2.288313866E0,2.836198488E0
5.667726823E0,-2.905876338E-1,-1.449385524E0,-2.183878899E0,2.637136063E0
5.672742709E0,-5.783841014E-2,-1.246561050E0,-2.460132599E0,2.758534419E0
5.677758438E0,1.006679386E-1,-1.157531619E0,-3.009347916E0,3.225862421E0
5.682774323E0,-1.138616651E-1,-1.271385550E0,-3.432008743E0,3.661703116E0
5.687790052E0,-9.842947125E-3,-1.226996303E0,-3.627880096E0,3.829769028E0
5.692805938E0,5.585275590E-2,-1.275048137E0,-3.661741257E0,3.877784975E0
5.697821771E0,1.764294356E-1,-1.154703856E0,-3.445340157E0,3.637971569E0
5.702837500E0,1.653191447E-2,-1.155223250E0,-3.318532944E0,3.513897403E0
5.707853386E0,-2.353189886E-2,-9.256242514E-1,-3.252595901E0,3.381821122E0
5.712869115E0,-5.890315771E-2,-9.137216210E-1,-3.474654198E0,3.593268509E0
5.717885000E0,1.163395941E-1,-7.738319039E-1,-3.824232101E0,3.903473054E0
5.722900730E0,4.558581114E-2,-6.998773813E-1,-3.987891197E0,4.049096518E0
5.727916615E0,-2.967061102E-2,-5.674653053E-1,-4.044742584E0,4.084463219E0
5.732932448E0,-1.596667767E-1,-4.817110002E-1,-4.006829262E0,4.038838905E0
5.737948177E0,4.571053386E-2,-5.566099286E-1,-4.022450447E0,4.061035787E0
5.742964063E0,1.172513366E-1,-6.502510309E-1,-3.871535301E0,3.927513191E0
5.747979792E0,-2.218776941E-2,-7.973983288E-1,-3.637998581E0,3.724428824E0
5.752995677E0,1.058366895E-2,-5.816770196E-1,-3.362621307E0,3.412577065E0
5.758011407E0,-1.544472575E-2,-4.817976356E-1,-3.294212341E0,3.329294588E0
5.763027292E0,2.051522136E-1,-2.717002332E-1,-3.528133392E0,3.544521644E0
5.768043021E0,9.159833193E-3,-2.974857986E-1,-3.913348198E0,3.924649771E0
5.773058907E0,-5.621647835E-2,-2.394233346E-1,-4.176959991E0,4.184193900E0
5.778074740E0,-1.711780131E-1,-3.072251678E-1,-4.285636902E0,4.300043357E0
5.783090469E0,4.868108034E-2,-2.726043463E-1,-4.194174767E0,4.203306431E0
5.788106355E0,4.789602757E-2,-2.270918489E-1,-3.960172653E0,3.966967630E0
5.793122084E0,-2.883172035E-2,-1.934766769E-3,-3.853870392E0,3.853978724E0
5.798137969E0,-2.220921367E-1,4.637843370E-2,-4.004170418E0,4.010593050E0
5.803153698E0,-7.540327311E-2,-3.119069338E-2,-4.322289467E0,4.323059651E0
5.808169584E0,2.343823314E-1,2.581000328E-1,-4.368000031E0,4.381891711E0
5.813185313E0,-3.576517105E-3,4.852049947E-1,-4.151119232E0,4.179381241E0
5.818201198E0,-2.510869801E-1,4.230917096E-1,-4.071262360E0,4.100881426E0
5.823217032E0,-1.013544500E-1,2.990007401E-1,-4.192725182E0,4.204594941E0
5.828232761E0,1.846835017E-1,4.806540012E-1,-4.371653557E0,4.401873588E0
5.833248646E0,1.452320218E-1,5.936335921E-1,-4.533646584E0,4.574652394E0
5.838264375E0,5.381330848E-2,7.587246299E-1,-4.671267509E0,4.732789778E0
5.843280261E0,-9.190329909E-2,7.728295326E-1,-4.872945786E0,4.934704888E0
5.848295990E0,-1.867136359E-2,7.515245676E-1,-4.980766296E0,5.037178843E0
5.853311875E0,3.359422088E-2,6.598779559E-1,-4.927989006E0,4.972086396E0
5.858327605E0,-1.004771292E-1,6.452385783E-1,-4.557196617E0,4.603745158E0
5.863343490E0,-6.535881758E-2,6.781214476E-1,-4.215796471E0,4.270487133E0
5.868359323E0,1.613506079E-1,8.813868165E-1,-3.978004456E0,4.077670436E0
5.873375052E0,1.840226948E-1,9.298762679E-1,-3.937032700E0,4.049538332E0
5.878390938E0,1.145586967E-1,8.331009150E-1,-3.908422470E0,3.997867811E0
5.883406667E0,-1.661608070E-1,5.990831852E-1,-3.923465729E0,3.972416569E0
5.888422552E0,7.586038113E-2,6.830884218E-1,-3.833958626E0,3.895074240E0
5.893438282E0,8.940398693E-2,7.912305593E-1,-3.649846077E0,3.735694749E0
5.898454167E0,1.717033684E-1,1.058878183E0,-3.461953163E0,3.624337837E0
5.903469896E0,6.641706824E-2,1.217984915E0,-3.547167778E0,3.751039553E0
5.908485782E0,8.852231503E-2,1.395923734E0,-4.110291481E0,4.341766384E0
5.913501615E0,1.002457440E-1,1.525022507E0,-4.753554344E0,4.993197548E0
5.918517344E0,4.796737432E-2,1.405181885E0,-5.092032433E0,5.282578091E0
5.923533230E0,4.956263304E-2,1.387106419E0,-4.920722008E0,5.112731731E0
5.928548959E0,-7.124483585E-2,1.409858108E0,-4.326720238E0,4.551184871E0
5.933564844E0,2.982938290E-2,1.436970711E0,-3.777296066E0,4.041502219E0
5.938580573E0,2.409639955E-1,1.595112562E0,-3.513883591E0,3.866500436E0
5.943596459E0,1.568380296E-1,1.577082634E0,-3.629197121E0,3.960159030E0
5.948612188E0,9.045910835E-2,1.658824444E0,-3.930982590E0,4.267611218E0
5.953628073E0,-8.630451560E-2,1.841105819E0,-4.370813370E0,4.743535456E0
5.958643907E0,1.790395677E-1,2.249917269E0,-4.654108047E0,5.172514340E0
5.963659636E0,7.806512713E-2,2.286643744E0,-4.859847069E0,5.371493955E0
5.968675521E0,5.713850260E-2,2.394278288E0,-4.772879601E0,5.340057398E0
5.973691250E0,-7.883226871E-2,2.461048365E0,-4.673545837E0,5.282518743E0
5.978707136E0,2.212951183E-1,2.626938105E0,-4.581289291E0,5.285639688E0
5.983722865E0,2.232983112E-1,2.511000872E0,-4.463124275E0,5.125862445E0
5.988738750E0,4.790699482E-2,2.444215298E0,-4.101758957E0,4.775029847E0
5.993754480E0,-1.708969474E-2,2.510805368E0,-3.715268135E0,4.484155770E0
5.998770365E0,1.000960469E-1,2.806321621E0,-3.504577637E0,4.490826725E0
6.003786094E0,1.426860392E-1,2.823639393E0,-3.503019333E0,4.501604511E0
6.008801980E0,9.747305512E-2,2.955494642E0,-3.444991112E0,4.540089574E0
6.013817813E0,4.392644763E-2,2.982403994E0,-3.369055748E0,4.499688850E0
6.018833542E0,1.244359910E-1,3.020443916E0,-3.144207001E0,4.361720238E0
6.023849427E0,2.262126207E-1,3.063369513E0,-2.876244545E0,4.208109742E0
6.028865157E0,1.294893026E-1,2.987253428E0,-2.627635956E0,3.980567954E0
6.033881042E0,7.563292980E-2,2.921100855E0,-2.644682884E0,3.941179786E0
6.038896771E0,1.721308827E-1,3.145828962E0,-2.768921852E0,4.194376846E0
6.043912657E0,1.639492810E-1,3.379587412E0,-2.894433975E0,4.452666446E0
6.048928386E0,1.379626989E-1,3.618067503E0,-3.231015205E0,4.852721445E0
6.053944271E0,3.689927161E-1,4.017009735E0,-3.574284554E0,5.389622705E0
6.058960000E0,1.482657790E-1,4.365476131E0,-3.805138588E0,5.792965067E0
6.063975886E0,-9.752133489E-2,6.821211815E0,-3.391042709E0,7.618242034E0
6.068991615E0,9.936645031E-1,7.133252144E0,-5.940703392E0,9.336091906E0
6.074007500E0,1.355109453E0,6.008053780E0,-1.065882206E1,1.231030136E1
6.079023334E0,-1.601614594E0,4.390965462E0,-9.697544098E0,1.076513393E1
6.084039063E0,-5.905981660E-1,4.213694572E0,-5.521840096E0,6.970993199E0
6.089054948E0,8.228298426E-1,5.245806217E0,-1.618549347E0,5.551147071E0
6.094070677E0,1.166716456E0,6.000516891E0,-3.055000305E-2,6.112966838E0
6.099086563E0,5.033107400E-1,5.798052788E0,-1.075325966E0,5.918366647E0
6.104102292E0,-2.206595242E-2,5.398315430E0,-3.478230476E0,6.421867612E0
6.109118177E0,-1.004646271E-1,5.439741611E0,-4.887073517E0,7.313300862E0
6.114133907E0,3.104837239E-2,5.566302299E0,-4.477165222E0,7.143507102E0
6.119149792E0,2.121245861E-1,5.706056118E0,-2.867213249E0,6.389443253E0
6.124165521E0,2.327439785E-1,5.573045254E0,-1.286678314E0,5.724381560E0
6.129181407E0,3.815308809E-1,5.433932304E0,-2.953176498E-1,5.455309214E0
6.134197240E0,3.398292065E-1,5.523297310E0,-1.617641449E-1,5.536105554E0
6.139212969E0,3.863088191E-1,5.637747288E0,-5.708465576E-1,5.679726646E0
6.144228802E0,4.216408730E-1,5.741627693E0,-1.315458298E0,5.905463583E0
6.149244636E0,1.438826472E-1,5.895525455E0,-1.811230659E0,6.169155462E0
6.154260469E0,2.608166635E-2,5.932642937E0,-1.841154099E0,6.211825890E0
6.159276198E0,3.658064008E-1,6.007992744E0,-1.447179794E0,6.190647825E0
6.164292084E0,2.117254436E-1,5.846366405E0,-6.808652878E-1,5.889686354E0
6.169307813E0,1.258995980E-1,5.745440483E0,1.103124619E-1,5.747878382E0
6.174323698E0,4.135895967E-1,5.881794453E0,7.016906738E-1,5.937923218E0
6.179339427E0,4.304030538E-1,5.915078163E0,9.239177704E-1,6.002251287E0
6.184355313E0,2.435333729E-1,5.962585449E0,1.023737907E0,6.054731459E0
6.189371042E0,1.287003458E-1,5.734364510E0,8.915128708E-1,5.804678743E0
6.194386927E0,-1.415392458E-1,5.729233265E0,9.033212662E-1,5.801735643E0
6.199402761E0,2.949945033E-1,5.891379833E0,8.200139999E-1,5.955484956E0
6.204418490E0,5.016139746E-1,6.024164200E0,9.502229691E-1,6.119239706E0
6.209434375E0,2.726321816E-1,5.886936665E0,1.331646919E0,6.041823824E0
6.214450105E0,1.262424514E-2,5.588339806E0,1.743755817E0,5.854091348E0
6.219465990E0,5.604320392E-2,5.491961956E0,2.078907967E0,5.872533125E0
6.224481719E0,3.259943724E-1,5.668605804E0,2.339751720E0,6.141156423E0
6.229497605E0,4.470587075E-1,5.667444706E0,2.428565979E0,6.182048503E0
6.234513334E0,4.082785845E-1,5.447037697E0,2.336208344E0,5.940941045E0
6.239529219E0,2.050370276E-1,5.342098236E0,2.328313351E0,5.831045944E0
6.244544948E0,1.069764122E-1,5.094737053E0,2.490637779E0,5.671954349E0
6.249560834E0,1.789046526E-1,4.929881096E0,2.767892361E0,5.656585774E0
6.254576563E0,3.395920694E-1,4.929194450E0,3.231465816E0,5.903782857E0
6.259592448E0,4.670800269E-1,4.779678345E0,3.498373508E0,5.941557543E0
6.264608177E0,5.109727383E-1,4.688855171E0,3.614360809E0,5.942226857E0
6.269624063E0,1.865776479E-1,4.476046085E0,3.546298981E0,5.713670995E0
6.274639792E0,2.241576016E-1,4.451909065E0,3.535844803E0,5.689634384E0
6.279655677E0,2.236289084E-1,4.245416164E0,3.479982853E0,5.493982977E0
6.284671511E0,1.376110315E-1,3.845699549E0,3.562573433E0,5.244070106E0
6.289687240E0,2.478339821E-1,3.462202072E0,3.902676582E0,5.222944512E0
6.294703125E0,3.277678788E-1,3.410406113E0,4.530978203E0,5.680498667E0
6.299718855E0,3.596853316E-1,3.565939426E0,4.894598961E0,6.066497879E0
6.304734740E0,3.858766258E-1,3.487460613E0,4.697402000E0,5.863178989E0
6.309750469E0,1.611810178E-1,2.972933769E0,4.215062618E0,5.160529759E0
6.314766355E0,7.010735571E-2,2.340246439E0,4.019250870E0,4.651456330E0
6.319782084E0,1.936797202E-1,1.913960218E0,4.216835499E0,4.634917170E0
6.324797969E0,2.932914197E-1,1.623826623E0,4.940787315E0,5.209050974E0
6.329813698E0,4.841626883E-1,1.487126589E0,5.872249126E0,6.076945680E0
6.334829584E0,2.427633107E-1,1.228837132E0,6.506562710E0,6.626034487E0
6.339845313E0,4.280457795E-1,1.076973200E0,6.717460632E0,6.816698014E0
6.344861198E0,6.334378123E-1,1.006031275E0,6.596411705E0,6.702685266E0
6.349876927E0,4.088457823E-1,9.869285226E-1,6.548010349E0,6.634577780E0
6.354892813E0,-4.270871580E-1,2.034005523E-1,6.105878830E0,6.124175986E0
6.359908542E0,9.646619856E-2,-9.525485337E-2,5.703248978E0,5.704860043E0
6.364924427E0,5.211488605E-1,-6.874875426E-1,5.490731716E0,5.558090503E0
6.369940261E0,2.308221161E-2,-1.271379828E0,5.812458992E0,5.949925965E0
6.374955990E0,7.260154188E-2,-1.367425919E0,6.220717430E0,6.369650695E0
6.379971875E0,4.429621100E-1,-1.040857553E0,6.354424477E0,6.454324930E0
6.384987605E0,-2.036401629E-2,-9.987738729E-1,6.417096615E0,6.494389341E0
6.390003490E0,-2.217507958E-1,-1.330283165E0,6.057199001E0,6.205520643E0
6.395019219E0,8.614510298E-3,-1.828656673E0,5.679399014E0,5.966542767E0
6.400035105E0,-8.529101312E-2,-2.346787453E0,5.757343292E0,6.217852337E0
6.405050834E0,-1.879179478E-2,-2.744214535E0,6.161610603E0,6.745110212E0
6.410066719E0,8.909407258E-2,-2.891999245E0,6.385012627E0,7.009991700E0
6.415082448E0,-7.236637175E-2,-3.018448830E0,6.434902668E0,7.108040699E0
6.420098334E0,-1.073662043E-1,-3.186755657E0,6.110512257E0,6.892408807E0
6.425114063E0,-1.908514649E-1,-3.579309940E0,5.488722324E0,6.555452439E0
6.430129948E0,-9.118269384E-2,-3.695392847E0,5.059700012E0,6.266163642E0
6.435145677E0,-1.523082405E-1,-3.898071289E0,4.933329582E0,6.289348006E0
6.440161563E0,9.360610694E-2,-3.993573904E0,5.257959843E0,6.603297384E0
6.445177292E0,8.348309994E-2,-4.232735634E0,5.502412319E0,6.942590417E0
6.450193177E0,5.948276818E-2,-4.583452225E0,5.841553688E0,7.425316289E0
6.455208907E0,-3.291909397E-2,-4.833676338E0,5.569791794E0,7.374828217E0
6.460224792E0,1.720854640E-2,-5.103501797E0,5.158878803E0,7.256724966E0
6.465240625E0,6.544265151E-2,-5.418253422E0,4.443600178E0,7.007662622E0
6.470256355E0,-1.406317502E-1,-5.768290997E0,3.964763641E0,7.000879162E0
6.475272240E0,4.603628814E-2,-5.906476021E0,3.707954407E0,6.974059378E0
6.480287969E0,1.390725374E-2,-6.150562286E0,3.591819286E0,7.122554011E0
6.485303855E0,-6.902739406E-2,-6.308727264E0,3.659395218E0,7.293557283E0
6.490319584E0,-1.504372358E-1,-6.442384720E0,3.671700001E0,7.416760286E0
6.495335469E0,-1.600484848E-1,-6.489523888E0,3.604912758E0,7.425290014E0
6.500351198E0,-2.522384524E-1,-6.598689556E0,3.423298836E0,7.438098078E0
6.505367084E0,-2.530589104E-1,-6.812588215E0,3.177351952E0,7.521367058E0
6.510382813E0,-7.439890504E-2,-6.873329163E0,2.857485771E0,7.444018666E0
6.515398698E0,-2.436860055E-1,-7.056413174E0,2.671773434E0,7.549220028E0
6.520414427E0,-4.565265179E-1,-7.224669933E0,2.543874741E0,7.673041822E0
6.525430313E0,-2.195766866E-1,-7.418292046E0,2.194214821E0,7.739111672E0
6.530446042E0,1.129779071E-1,-7.580374718E0,1.828572273E0,7.798623047E0
6.535461927E0,2.547664195E-2,-7.781510353E0,1.703386784E0,7.965806862E0
6.540477657E0,-1.919572353E-1,-7.870006561E0,1.601350784E0,8.033565534E0
6.545493542E0,-4.688295722E-1,-7.890762329E0,1.859992504E0,8.120560536E0
6.550509271E0,-3.070396185E-1,-8.121680260E0,2.104470253E0,8.395520151E0
6.555525157E0,1.290282607E-2,-8.441279411E0,2.237699509E0,8.732849688E0
6.560540886E0,1.208434105E-1,-8.534450531E0,2.526247501E0,8.901313130E0
6.565556771E0,-6.574749947E-3,-8.364088058E0,2.503379822E0,8.730688564E0
6.570572500E0,-2.435075790E-1,-8.191591263E0,1.572856903E0,8.344779338E0
6.575588386E0,-5.216459185E-2,-8.106159210E0,-1.269626617E-1,8.107321247E0
6.580604115E0,1.283423007E-1,-8.069003105E0,-1.587002754E0,8.224588780E0
6.585620000E0,1.766445488E-2,-7.832139015E0,-2.575966835E0,8.244896526E0
6.590635730E0,-1.021803916E-1,-7.710095406E0,-2.821206093E0,8.210676940E0
6.595651615E0,-3.629127741E-1,-7.675497055E0,-1.994480133E0,7.938697105E0
6.600667344E0,-2.493314743E-1,-7.625241280E0,-1.327329636E0,7.743918563E0
6.605683230E0,2.774488330E-1,-7.559548378E0,-1.077934265E0,7.641053057E0
6.610699063E0,-8.822977543E-3,-7.472647667E0,-1.059978485E0,7.547456220E0
6.615714792E0,-1.517411917E-1,-7.344268799E0,-1.723343849E0,7.545278232E0
6.620730677E0,-1.482619047E-1,-7.205172539E0,-2.692777634E0,7.693344155E0
6.625746407E0,-1.297668815E-1,-7.029712200E0,-3.487627983E0,7.848391046E0
6.630762292E0,-1.853062361E-1,-6.869109154E0,-4.060770988E0,7.981783008E0
6.635778021E0,5.667456239E-2,-7.008475304E0,-3.921538353E0,8.031214176E0
6.640793907E0,1.228950247E-1,-6.841518402E0,-3.692172050E0,7.775192067E0
6.645809636E0,-1.845729947E-1,-6.744690895E0,-3.326713562E0,7.522761832E0
6.650825521E0,-1.022405326E-1,-6.567074299E0,-3.035818100E0,7.235544866E0
6.655841250E0,-7.774614543E-2,-6.699180603E0,-3.412817001E0,7.518802105E0
6.660857136E0,1.510587931E-1,-6.490880966E0,-3.653867722E0,7.450174750E0
6.665872865E0,6.402242929E-2,-6.557239532E0,-4.326041222E0,7.855960909E0
6.670888750E0,-1.450373530E-1,-6.125969887E0,-4.231158257E0,7.446559144E0
6.675904480E0,-4.784680009E-1,-6.167881489E0,-4.551315308E0,7.680245095E0
6.680920365E0,2.218316197E-1,-5.817116737E0,-4.798494339E0,7.544110572E0
6.685936094E0,1.420159638E-1,-5.744863033E0,-5.265068054E0,7.793879741E0
6.690951980E0,-1.214167625E-1,-5.403985977E0,-5.178825378E0,7.485855914E0
6.695967709E0,-4.064773321E-1,-5.353882790E0,-5.544693947E0,7.718349287E0
6.700983594E0,3.642380238E-2,-5.147201538E0,-5.895996094E0,7.826734971E0
6.705999323E0,1.272113770E-1,-5.074419022E0,-6.276200294E0,8.071963905E0
6.711015209E0,1.871306300E-1,-4.698066711E0,-6.324368477E0,7.880639906E0
6.716030938E0,-3.639429808E-1,-4.616475582E0,-6.404509544E0,7.903293225E0
6.721046823E0,-1.655899584E-1,-4.329774857E0,-6.643414497E0,7.931539985E0
6.726062552E0,2.949198186E-1,-4.011604786E0,-7.268397331E0,8.307198711E0
6.731078438E0,3.182429075E-1,-3.587536335E0,-7.645752907E0,8.451581687E0
6.736094167E0,-1.175879240E-1,-3.305475712E0,-7.972106934E0,8.631018802E0
6.741110052E0,-2.657496035E-1,-3.179555416E0,-8.256956100E0,8.851978284E0
6.746125782E0,-1.221522540E-1,-3.101357460E0,-8.323190689E0,8.883064928E0
6.751141667E0,2.459326982E-1,-2.946877956E0,-8.307358742E0,8.817980599E0
6.756157396E0,3.041050434E-1,-2.582825184E0,-8.185585976E0,8.588788248E0
6.761173282E0,9.698659182E-3,-2.213671207E0,-8.352630615E0,8.640999507E0
6.766189115E0,-2.582294643E-1,-1.945630312E0,-8.702896118E0,8.921466281E0
6.771204844E0,9.704780579E-2,-1.829010010E0,-9.190551758E0,9.371282597E0
6.776220677E0,2.619853914E-1,-1.636258960E0,-9.387227058E0,9.532366525E0
6.781236511E0,-5.833256245E-2,-1.574288487E0,-9.180675507E0,9.314858544E0
6.786252344E0,-1.940697432E-2,-1.418947220E0,-8.822206497E0,8.935609398E0
6.791268073E0,-2.844414115E-2,-1.269372582E0,-8.460081100E0,8.554828347E0
6.796283907E0,1.805511415E-1,-1.086612225E0,-8.280718803E0,8.353659602E0
6.801299740E0,1.715776026E-1,-1.200176954E0,-8.343639374E0,8.431262159E0
6.806315469E0,4.905575514E-2,-1.206544161E0,-8.220392227E0,8.308610212E0
6.811331355E0,3.594443202E-2,-9.582918882E-1,-8.021218300E0,8.078338837E0
6.816347188E0,1.301710904E-1,-6.101089716E-1,-7.707962990E0,7.733166940E0
6.821362917E0,6.633985043E-2,-5.278791189E-1,-7.574984550E0,7.593645256E0
6.826378802E0,2.806300223E-1,-3.711969852E-1,-7.667566299E0,7.681673865E0
6.831394532E0,2.606994212E-1,-1.778077334E-1,-7.660379410E0,7.666876318E0
6.836410417E0,-6.803795695E-2,8.599777520E-2,-7.309856415E0,7.310678873E0
6.841426146E0,-5.158963799E-2,1.023530886E-1,-7.221535683E0,7.222445241E0
6.846442032E0,3.382527232E-1,2.463753521E-2,-7.390521049E0,7.398298676E0
6.851457761E0,3.093939424E-1,4.892729223E-2,-7.383937836E0,7.390578898E0
6.856473646E0,1.921525896E-1,3.329862952E-1,-7.319414139E0,7.329503791E0
6.861489375E0,9.536197782E-2,9.013369679E-1,-7.261806488E0,7.318151113E0
6.866505261E0,1.863234341E-1,1.397657156E0,-7.557767868E0,7.688173847E0
6.871520990E0,4.866895378E-1,1.684132457E0,-8.166175842E0,8.352221065E0
6.876536875E0,1.033349037E-1,1.557155132E0,-8.496057510E0,8.638194454E0
6.881552605E0,-8.732888103E-2,1.665416479E0,-8.373247147E0,8.537710827E0
6.886568490E0,9.522122145E-2,1.856215715E0,-8.185820580E0,8.394180271E0
6.891584219E0,3.590473235E-1,2.267046928E0,-8.027013779E0,8.348734453E0
6.896600105E0,2.427003384E-1,2.479702950E0,-8.193008423E0,8.563481604E0
6.901615834E0,2.685318887E-1,2.709587812E0,-8.735503197E0,9.150026863E0
6.906631719E0,1.590891182E-1,3.151054382E0,-9.153815269E0,9.682292448E0
6.911647448E0,-4.536902905E-2,3.528020859E0,-9.325775146E0,9.970911273E0
6.916663334E0,2.317919135E-1,3.683560610E0,-9.524188995E0,1.021432926E1
6.921679063E0,4.266403019E-1,3.833443880E0,-9.600584030E0,1.034642584E1
6.926694948E0,1.210563481E-1,3.856764317E0,-9.218111038E0,9.993140485E0
6.931710677E0,2.622598410E-2,4.194078445E0,-8.692909241E0,9.651821221E0
6.936726563E0,3.094812930E-1,4.524531364E0,-8.567791939E0,9.694030196E0
6.941742292E0,4.279704094E-1,4.699563503E0,-8.705737114E0,9.902470121E0
6.946758177E0,4.062760174E-1,4.982542515E0,-8.680693626E0,1.001724673E1
6.951773907E0,-6.112158298E-4,5.017671585E0,-8.452318192E0,9.829481742E0
6.956789792E0,2.060220242E-1,5.205934525E0,-8.166969299E0,9.687289966E0
6.961805521E0,4.673167467E-1,5.261266708E0,-7.942173004E0,9.538208655E0
6.966821407E0,3.748690784E-1,5.472960949E0,-7.560153961E0,9.340757801E0
6.971837136E0,2.103595436E-1,5.656688690E0,-7.226742744E0,9.179770627E0
6.976853021E0,3.618779778E-1,5.938822746E0,-7.257322311E0,9.384524411E0
6.981868750E0,3.705545962E-1,6.108285427E0,-7.337954521E0,9.554791370E0
6.986884636E0,2.805774510E-1,6.117021561E0,-7.401502609E0,9.606191616E0
6.991900365E0,4.124256074E-1,6.603240967E0,-7.218146324E0,9.791553631E0
6.996916250E0,1.416891217E-1,6.653360367E0,-6.950957298E0,9.623049794E0
7.001931980E0,5.468069315E-1,7.018877029E0,-6.877329826E0,9.841813761E0
7.006947865E0,3.316361010E-1,7.152154922E0,-6.681518555E0,9.793160508E0
7.011963594E0,2.801854014E-1,7.414114475E0,-6.380168915E0,9.785405086E0
7.016979480E0,5.014657974E-1,7.556015015E0,-6.246006012E0,9.816181638E0
7.021995209E0,3.680580556E-1,7.653748989E0,-6.180467606E0,9.844466473E0
7.027011094E0,2.568086088E-1,8.122406006E0,-5.979736328E0,1.008943391E1
7.032026823E0,3.443664908E-1,8.532589912E0,-5.882671356E0,1.036964325E1
7.037042709E0,5.325326324E-1,8.690819740E0,-5.700213432E0,1.040703473E1
7.042058438E0,4.350045025E-1,8.691503525E0,-5.459009171E0,1.027288876E1
7.047074323E0,2.894054353E-1,8.862284660E0,-5.106479645E0,1.023230078E1
7.052090052E0,4.261380434E-1,9.262067795E0,-4.675924301E0,1.038420731E1
7.057105886E0,4.127916694E-1,9.305646896E0,-4.251433372E0,1.023914776E1
7.062121719E0,3.841663301E-1,9.311385155E0,-4.110345840E0,1.018550049E1
7.067137552E0,4.266287088E-1,9.506000519E0,-3.857550621E0,1.026775315E1
7.072153282E0,5.108731389E-1,9.629553795E0,-3.748392105E0,1.034600121E1
7.077169167E0,3.585817218E-1,1.001711178E1,-3.736405373E0,1.069728163E1
7.082184896E0,4.214166999E-1,1.000424194E1,-3.608948708E0,1.064363470E1
7.087200782E0,5.093709826E-1,1.007052135E1,-3.163277626E0,1.056793189E1
7.092216511E0,3.053807914E-1,1.009841347E1,-2.626924515E0,1.043896280E1
7.097232344E0,4.719750583E-1,1.017633915E1,-2.047865868E0,1.039107278E1
7.102248177E0,6.193304658E-1,1.031876945E1,-1.622426987E0,1.046388277E1
7.107263907E0,6.102924943E-1,1.016450882E1,-1.271534920E0,1.026189542E1
7.112279792E0,3.091799021E-1,1.015647984E1,-1.269433975E0,1.024017273E1
7.117295521E0,6.131874919E-1,1.030172729E1,-1.147214890E0,1.038352956E1
7.122311407E0,3.770237565E-1,1.015669060E1,-6.953735352E-1,1.018744596E1
7.127327136E0,3.446106315E-1,9.784820557E0,-1.706647873E-1,9.792374395E0
7.132343021E0,4.581449628E-1,9.927329063E0,5.295429230E-1,9.951993511E0
7.137358750E0,4.807265997E-1,9.700382233E0,1.148477554E0,9.779954714E0
7.142374636E0,5.460693240E-1,9.489108086E0,1.583332062E0,9.635782500E0
7.147390365E0,2.761206627E-1,9.205439568E0,2.094644547E0,9.444781418E0
7.152406250E0,2.389622033E-1,8.712085724E0,2.720027924E0,9.129955778E0
7.157421980E0,5.649370551E-1,8.648381233E0,3.351418972E0,9.292236596E0
7.162437865E0,3.939494193E-1,8.522264481E0,4.098408222E0,9.464731268E0
7.167453594E0,3.424272239E-1,7.974683762E0,4.516134739E0,9.171058308E0
7.172469480E0,3.827546835E-1,7.875349998E0,4.784503937E0,9.222749951E0
7.177485209E0,3.692917228E-1,7.505397797E0,5.118440628E0,9.092073852E0
7.182501094E0,5.886145830E-1,7.171200275E0,5.479508400E0,9.044202166E0
7.187516823E0,3.337157667E-1,6.877513885E0,5.965602875E0,9.110432543E0
7.192532709E0,3.108232617E-1,6.323742867E0,6.408957481E0,9.008943941E0
7.197548438E0,5.450017452E-1,5.716518402E0,6.897919655E0,8.975349860E0
7.202564323E0,3.668897152E-1,5.198519230E0,7.482392788E0,9.118410611E0
7.207580052E0,3.698919415E-1,4.683094978E0,8.274420738E0,9.514948091E0
7.212595886E0,4.751080275E-1,4.328000069E0,8.841055870E0,9.855028216E0
7.217611719E0,5.719454288E-1,4.197299957E0,9.213784218E0,1.014092048E1
7.222627448E0,5.556624532E-1,3.767569065E0,9.165918350E0,9.925593011E0
7.227643334E0,4.783128798E-1,3.455298424E0,8.815294266E0,9.480363042E0
7.232659063E0,3.437616825E-1,2.973187923E0,8.513703346E0,9.024475785E0
7.237674948E0,3.522048891E-1,2.254659653E0,8.454630852E0,8.757186836E0
7.242690677E0,2.826021314E-1,1.490036011E0,8.651992798E0,8.783908620E0
7.247706563E0,3.297982216E-1,8.245493770E-1,9.265576363E0,9.308037058E0
7.252722292E0,5.177895427E-1,5.674422979E-1,1.005825138E1,1.008754269E1
7.257738177E0,5.244483948E-1,4.390145242E-1,1.004482651E1,1.006808420E1
7.262753907E0,3.175676465E-1,6.018108130E-2,1.068978024E1,1.069466561E1
7.267769792E0,3.211014271E-1,-4.422398508E-1,1.017266560E1,1.018733564E1
7.272785521E0,2.747747004E-1,-1.011840105E0,9.606744766E0,9.663791520E0
7.277801407E0,9.382412583E-2,-1.527503252E0,9.300459862E0,9.425530372E0
7.282817136E0,1.128208786E-1,-1.736558437E0,8.995132446E0,9.161919640E0
7.287833021E0,1.201168001E-1,-2.172202110E0,8.661979675E0,8.931001173E0
7.292848750E0,-7.347901165E-2,-3.001543522E0,8.394206047E0,8.915007450E0
7.297864636E0,-1.869072020E-2,-3.609673500E0,8.627104759E0,9.351846269E0
7.302880365E0,1.807701588E-1,-4.230297565E0,9.023041725E0,9.967114794E0
7.307896250E0,2.332913876E-1,-4.542805672E0,9.134737968E0,1.020465315E1
7.312911980E0,1.507185102E-1,-5.022695541E0,9.120525360E0,1.041317288E1
7.317927865E0,8.910083771E-2,-5.104972839E0,8.736408234E0,1.011896810E1
7.322943594E0,-1.042499691E-1,-5.397933006E0,8.322284698E0,9.920129606E0
7.327959427E0,-1.351230890E-1,-5.848592758E0,7.813633442E0,9.761002155E0
7.332975261E0,-2.273331583E-2,-6.474943638E0,7.445077419E0,9.866842945E0
7.337990990E0,1.640966684E-1,-7.065811157E0,7.340910435E0,1.019026894E1
7.343006875E0,-2.792477608E-4,-7.423174858E0,7.494189262E0,1.054828885E1
7.348022605E0,-8.158034086E-2,-7.832207680E0,7.507679939E0,1.084967237E1
7.353038490E0,-7.362563908E-2,-8.128000259E0,7.152092457E0,1.082692179E1
7.358054219E0,-1.285961270E-2,-8.595522881E0,6.535467625E0,1.079794036E1
7.363070105E0,-1.466419995E-1,-9.125956535E0,5.631533623E0,1.072467983E1
7.368085834E0,-2.446811199E-1,-9.310209274E0,5.064795017E0,1.060150999E1
7.373101719E0,-2.303386927E-1,-9.519275665E0,4.490560055E0,1.052781054E1
7.378117448E0,-5.151605606E-2,-9.824579239E0,3.928100109E0,1.058087811E1
7.383133334E0,-4.469798505E-2,-1.014393616E1,3.585719109E0,1.075912730E1
7.388149063E0,-2.433797717E-1,-1.023461914E1,3.442125797E0,1.080068945E1
7.393164948E0,-3.752388954E-1,-1.052046490E1,3.490769863E0,1.109082775E1
7.398180677E0,-2.933844328E-1,-1.080529308E1,3.653509617E0,1.141002040E1
7.403196511E0,-2.867509127E-1,-1.109720325E1,3.942986488E0,1.178037727E1
7.408212344E0,-1.680510342E-1,-1.134451580E1,4.087277889E0,1.205952406E1
7.413228073E0,-2.269308865E-1,-1.143546391E1,4.046908855E0,1.213255141E1
7.418243959E0,-1.240974665E-1,-1.156496334E1,3.403507710E0,1.205602098E1
7.423259688E0,-1.590482593E-1,-1.170345211E1,2.542326450E0,1.197745847E1
7.428275573E0,-2.001166046E-1,-1.182303238E1,1.701124191E0,1.194646244E1
7.433291302E0,-3.653404117E-1,-1.175237370E1,1.356468678E0,1.183603685E1
7.438307188E0,-5.622290373E-1,-1.153674030E1,1.393142223E0,1.163414473E1
7.443322917E0,-1.306066066E-1,-1.141424084E1,7.341384888E-1,1.143857121E1
7.448338802E0,1.249151528E-1,-1.140041542E1,-5.776405334E-3,1.140110122E1
7.453354532E0,-4.792959243E-2,-1.120981598E1,-7.938089371E-1,1.123798933E1
7.458370417E0,-4.164532200E-2,-1.096067238E1,-1.522770882E0,1.106602478E1
7.463386146E0,-2.840817720E-2,-1.066781998E1,-2.056765556E0,1.086432118E1
7.468402032E0,-4.879928380E-2,-1.043184090E1,-2.589934349E0,1.074864856E1
7.473417761E0,1.195924506E-1,-1.016335487E1,-3.029780388E0,1.060601970E1
7.478433594E0,-2.577303350E-1,-9.933116913E0,-3.424891472E0,1.051014358E1
7.483449427E0,6.619573385E-2,-9.919458389E0,-3.727324486E0,1.059683842E1
7.488465157E0,7.739643008E-2,-9.664539337E0,-4.181768417E0,1.053074062E1
7.493481042E0,-1.211317331E-1,-9.510352135E0,-4.245312691E0,1.041557250E1
7.498496771E0,-1.442332566E-1,-9.335152626E0,-4.377799988E0,1.031169290E1
7.503512657E0,-1.542926878E-1,-9.239967346E0,-4.586611748E0,1.031687017E1
7.508528386E0,2.438587248E-1,-8.907925606E0,-5.199714661E0,1.031734647E1
7.513544271E0,2.389317751E-1,-8.656938553E0,-5.920722008E0,1.049069219E1
7.518560000E0,-2.980846763E-1,-8.220963478E0,-6.321939468E0,1.037497054E1
7.523575886E0,-2.680370212E-1,-8.086870193E0,-7.276777267E0,1.088213218E1
7.528591615E0,-3.688650578E-2,-7.945472717E0,-7.653331757E0,1.103201633E1
7.533607448E0,-8.192273974E-2,-7.760382175E0,-7.784543037E0,1.099224059E1
7.538623282E0,1.475827396E-2,-7.566532612E0,-7.510225296E0,1.066096232E1
7.543639011E0,-2.819928527E-1,-7.232046604E0,-7.328166008E0,1.029971044E1
7.548654896E0,-1.099351496E-1,-6.984921932E0,-7.723734856E0,1.041428347E1
7.553670625E0,1.376327574E-1,-6.630842686E0,-8.493210793E0,1.077597546E1
7.558686511E0,-3.337150812E-2,-6.317630768E0,-9.256169319E0,1.120670525E1
7.563702240E0,-1.393433809E-1,-6.074336052E0,-9.754308701E0,1.149188902E1
7.568718125E0,-3.454986811E-1,-5.797786713E0,-9.887352943E0,1.146705927E1
7.573733855E0,1.102402210E-1,-5.474478245E0,-9.968620300E0,1.137345399E1
7.578749740E0,2.085704058E-1,-4.997959137E0,-1.019435692E1,1.135552773E1
7.583765469E0,-4.460429549E-1,-4.743775368E0,-1.012907505E1,1.119377150E1
7.588781355E0,-5.939324200E-2,-4.404230118E0,-1.049740028E1,1.138403194E1
7.593797084E0,-8.850315213E-2,-4.300855637E0,-1.068166447E1,1.151534402E1
7.598812917E0,5.319729447E-2,-3.924438715E0,-1.033514404E1,1.105528161E1
7.603828750E0,-1.075128764E-1,-3.895178080E0,-1.007530117E1,1.080257677E1
7.608844480E0,-8.865343034E-2,-3.668048859E0,-9.686687469E0,1.035829889E1
7.613860365E0,2.026438415E-1,-3.287722588E0,-9.676378250E0,1.022166720E1
7.618876094E0,2.635990381E-1,-2.562069893E0,-9.697415352E0,1.003362104E1
7.623891980E0,-3.221106529E-2,-2.054783344E0,-9.962735176E0,1.017247582E1
7.628907709E0,1.257491708E-1,-1.718648076E0,-1.065618324E1,1.079461928E1
7.633923594E0,6.630340219E-2,-1.724980593E0,-1.089495087E1,1.103086164E1
7.638939323E0,2.152323425E-1,-1.694868922E0,-1.052172279E1,1.065952889E1
7.643955157E0,2.146143317E-1,-1.467227221E0,-9.946310043E0,1.005623680E1
7.648970990E0,2.711305618E-1,-1.008092046E0,-9.453626633E0,9.511089205E0
7.653986719E0,5.375864506E-1,-5.077655911E-1,-9.574618340E0,9.603131856E0
7.659002605E0,1.194854975E-1,-1.760188937E-1,-9.863938332E0,9.866232252E0
7.664018334E0,1.959479153E-1,5.600069165E-1,-1.023534489E1,1.025252595E1
7.669034219E0,2.280935943E-1,1.369446278E0,-1.044013977E1,1.053204293E1
7.674049948E0,1.379158497E-1,2.056797743E0,-1.018458748E1,1.039111447E1
7.679065834E0,1.012196541E-1,2.288419724E0,-9.923674583E0,1.018461720E1
7.684081563E0,2.663098276E-1,2.834389925E0,-9.466233253E0,9.885052310E0
7.689097448E0,2.015545964E-1,3.177484274E0,-9.142631531E0,9.681153954E0
7.694113177E0,1.109697223E-1,3.262059212E0,-9.002936363E0,9.576335820E0
7.699129011E0,1.841740906E-1,3.301160336E0,-9.171318054E0,9.749084804E0
7.704144844E0,3.609688878E-1,3.438008308E0,-9.104686737E0,9.738866476E0
7.709160573E0,1.581999958E-1,3.576485634E0,-8.867936134E0,9.563292739E0
7.714176459E0,-6.527006626E-3,3.403500080E0,-8.712498665E0,9.353688491E0
7.719192188E0,3.029244840E-1,3.041146278E0,-8.851088524E0,9.363872168E0
7.724208073E0,3.677247167E-1,3.064077854E0,-9.000907898E0,9.515258144E0
7.729223802E0,-2.293288708E-2,2.508170128E0,-9.150111198E0,9.487675071E0
7.734239688E0,1.122667193E-1,2.274991989E0,-9.590191841E0,9.856975800E0
7.739255417E0,2.098125517E-1,2.164320469E0,-9.933666229E0,1.016887551E1
7.744271302E0,3.359891474E-1,2.120680332E0,-1.025236511E1,1.047478707E1
7.749287032E0,1.303303242E-1,2.047727823E0,-1.031422424E1,1.051633952E1
7.754302865E0,2.578088939E-1,2.067177296E0,-1.072682858E1,1.092723838E1
7.759318698E0,2.429774106E-1,1.807943463E0,-1.134382915E1,1.148956733E1
7.764334427E0,5.332041979E-1,2.765177250E0,-1.165027142E1,1.198579726E1
7.769350313E0,5.760366917E-1,5.540501118E0,-1.140354729E1,1.269133018E1
7.774366042E0,2.447093129E-1,7.286913872E0,-1.095750046E1,1.316152775E1
7.779381927E0,6.851757765E-1,7.957732201E0,-1.110551929E1,1.367945636E1
7.784397657E0,-1.087647378E-1,7.163809776E0,-1.088700771E1,1.303299418E1
7.789413490E0,3.158429861E-1,6.969673157E0,-9.887332916E0,1.210105173E1
7.794429323E0,-1.660108566E-3,6.824078560E0,-8.990625381E0,1.128713408E1
7.799445052E0,8.474726677E-1,7.927297115E0,-8.095326424E0,1.136197867E1
7.804460938E0,2.957485020E-1,8.537344933E0,-7.781753540E0,1.155549280E1
7.809476667E0,3.220855892E-1,9.011603355E0,-8.174987793E0,1.217140746E1
7.814492552E0,2.279092669E-1,8.785381317E0,-8.788362503E0,1.242860342E1
7.819508282E0,3.306756318E-1,8.874019623E0,-8.942631721E0,1.260270736E1
7.824524115E0,4.411616325E-1,8.910837173E0,-8.313827515E0,1.219497317E1
7.829539948E0,3.466046154E-1,9.010418892E0,-7.675147057E0,1.184126960E1
7.834555677E0,5.967975855E-1,9.890131950E0,-7.142674446E0,1.221428162E1
7.839571563E0,4.070229828E-1,1.036190414E1,-6.940450668E0,1.247816416E1
7.844587292E0,6.150585413E-1,1.016270733E1,-7.469415665E0,1.262739433E1
7.849603177E0,5.149582028E-1,1.011762428E1,-7.697691917E0,1.272344151E1
7.854618907E0,2.119069993E-1,1.044156265E1,-7.307521820E0,1.274641167E1
7.859634792E0,5.042618513E-1,1.100212288E1,-6.708326340E0,1.289583771E1
7.864650521E0,7.483543158E-1,1.131322289E1,-6.323383331E0,1.298207314E1
7.869666355E0,5.893188715E-1,1.138986397E1,-6.011466026E0,1.289240171E1
7.874682188E0,3.060136437E-1,1.141929722E1,-5.636450768E0,1.273827188E1
7.879697917E0,3.119625449E-1,1.155924892E1,-5.105174065E0,1.264026734E1
7.884713802E0,6.627635956E-1,1.178531361E1,-4.654473305E0,1.268845909E1
7.889729532E0,5.947665572E-1,1.185642338E1,-4.047889709E0,1.254248515E1
7.894745417E0,4.439468384E-1,1.184914970E1,-3.515240669E0,1.236755248E1
7.899761146E0,4.243158698E-1,1.200272846E1,-2.965787888E0,1.237099156E1
7.904777032E0,4.100260437E-1,1.175434780E1,-2.230610847E0,1.197115025E1
7.909792761E0,4.218407869E-1,1.167181396E1,-2.202239037E0,1.188524496E1
7.914808594E0,5.691673160E-1,1.174438381E1,-1.038471222E0,1.180393684E1
7.919824427E0,4.754316807E-1,1.161285210E1,-5.269594193E-1,1.163451999E1
7.924840157E0,4.700710475E-1,1.146765995E1,4.975318909E-2,1.147739809E1
7.929856042E0,5.266109705E-1,1.123047447E1,4.951181412E-1,1.125371130E1
7.934871771E0,5.394950509E-1,1.132612896E1,1.053267479E0,1.138778400E1
7.939887605E0,5.742309093E-1,1.120402527E1,1.503905296E0,1.131908364E1
7.944903438E0,4.917005599E-1,1.071984673E1,1.966089725E0,1.090973841E1
7.949919167E0,5.616959333E-1,1.063894081E1,2.501817703E0,1.094356686E1
7.954935052E0,4.362530410E-1,1.028898811E1,3.230296612E0,1.079297963E1
7.959950782E0,4.909606874E-1,9.789558411E0,4.052510738E0,1.060657058E1
7.964966667E0,5.281317234E-1,9.241722107E0,5.122976303E0,1.057985051E1
7.969982396E0,3.700114787E-1,8.710870743E0,6.216436386E0,1.070795307E1
7.974998230E0,6.065089703E-1,8.657629013E0,6.842860222E0,1.105201924E1
7.980014063E0,5.147548318E-1,8.133318901E0,7.311034679E0,1.094838239E1
7.985029792E0,6.424843669E-1,7.733135223E0,7.614130974E0,1.087148366E1
7.990045677E0,3.312212527E-1,7.221946239E0,7.848074913E0,1.067044961E1
7.995061407E0,4.449571967E-1,6.821352005E0,8.101492882E0,1.060014231E1
8.000077292E0,3.778798282E-1,6.302574158E0,8.462631226E0,1.055847344E1
8.005093021E0,2.995533645E-1,5.465124607E0,9.074519157E0,1.059736841E1
8.010108855E0,4.239168167E-1,4.670587540E0,9.678657532E0,1.075502232E1
8.015124688E0,4.171843231E-1,4.380254269E0,1.033969402E1,1.123698993E1
8.020140417E0,4.498963356E-1,3.770899296E0,1.083511448E1,1.148136725E1
8.025156302E0,5.057742596E-1,3.127582073E0,1.123461437E1,1.167279475E1
8.030172032E0,1.374643892E-1,2.332082987E0,1.139025402E1,1.162735542E1
8.035187865E0,3.807201982E-1,1.601076603E0,1.134787941E1,1.146659327E1
8.040203698E0,5.061854720E-1,1.198807478E0,1.135408783E1,1.142841518E1
8.045219427E0,4.005551934E-1,5.055894256E-1,1.175805378E1,1.177573326E1
8.050235313E0,4.044519961E-1,3.871487379E-1,1.174165440E1,1.175499526E1
8.055251042E0,1.570832133E-1,-4.779844880E-1,1.170717430E1,1.171798082E1
8.060266927E0,5.399254560E-1,-1.089838624E0,1.141316795E1,1.147779031E1
8.065282657E0,7.023686171E-2,-2.057585001E0,1.108483219E1,1.127439994E1
8.070298542E0,-1.629640907E-2,-3.319195271E0,1.104997921E1,1.153773649E1
8.075314271E0,3.478014469E-1,-3.941375017E0,1.097842503E1,1.166967090E1
8.080330105E0,5.770759284E-2,-4.621079922E0,1.128182316E1,1.219168748E1
8.085345938E0,8.570177853E-2,-4.938430309E0,1.153417015E1,1.254721163E1
8.090361667E0,2.656939328E-1,-4.902229309E0,1.116408825E1,1.219587274E1
8.095377552E0,1.862621605E-1,-4.854600430E0,1.037546253E1,1.145652922E1
8.100393282E0,-4.311995208E-2,-4.935480118E0,9.216223717E0,1.045464504E1
8.105409115E0,-1.410449892E-1,-4.836463451E0,8.511702538E0,9.790830021E0
8.110424948E0,-4.300628603E-2,-4.545213223E0,8.387748718E0,9.540185603E0
8.115440677E0,-1.115522683E-1,-4.719691753E0,8.384419441E0,9.622183927E0
8.120456563E0,7.148054242E-2,-4.967036247E0,8.224069595E0,9.607907122E0
