"Time (s)","Linear Acceleration x (m/s^2)","Linear Acceleration y (m/s^2)","Linear Acceleration z (m/s^2)","Absolute acceleration (m/s^2)"
1.109188090E-1,-1.862812042E-1,3.042877316E-1,-1.997063905E-1,4.088696040E-1
1.160346430E-1,-1.452732086E-1,2.848064303E-1,-1.486435235E-1,3.525817706E-1
1.211504760E-1,-9.505462646E-2,3.059416413E-1,-9.840366244E-2,3.351401956E-1
1.262663090E-1,-5.867099762E-2,3.089972138E-1,-5.320322514E-2,3.189861240E-1
1.313821430E-1,3.607749939E-3,3.588472307E-1,-7.021209598E-2,3.656693715E-1
1.364979760E-1,3.580856323E-2,3.985310495E-1,-1.032989919E-1,4.132552871E-1
1.416138090E-1,6.451416016E-2,4.143955410E-1,-1.817028821E-1,4.570576316E-1
1.467296430E-1,2.767372131E-2,4.163693488E-1,-2.580651343E-1,4.906392595E-1
1.518454760E-1,-4.016399384E-2,3.998015225E-1,-3.253209889E-1,5.169991776E-1
1.569613090E-1,-1.311979294E-1,3.073177636E-1,-3.914028406E-1,5.146389881E-1
1.620771430E-1,-1.661615372E-1,2.337920964E-1,-4.559486806E-1,5.386627889E-1
1.671929760E-1,-1.144676208E-1,1.905909181E-1,-4.541530013E-1,5.056507519E-1
1.723088090E-1,-5.523300171E-2,1.789446771E-1,-3.807649016E-1,4.243274588E-1
1.774246430E-1,-6.747531891E-2,1.610626578E-1,-2.491973937E-1,3.042917012E-1
1.825404760E-1,-1.003236771E-1,1.811690927E-1,-1.680710018E-1,2.667113457E-1
1.876563090E-1,-1.207122803E-1,1.450535953E-1,-9.003858268E-2,2.090907614E-1
1.927721430E-1,-1.034078598E-1,1.566270292E-1,-7.065370679E-2,2.005421602E-1
1.978879760E-1,-1.099557877E-1,1.657535434E-1,-6.170803308E-2,2.082603988E-1
2.030038090E-1,-7.447052002E-2,1.723908186E-1,-8.156749606E-2,2.047381476E-1
2.081196430E-1,-6.795406342E-2,1.952447891E-1,-1.270490587E-1,2.426514903E-1
2.132354760E-1,-7.797145844E-2,2.270497680E-1,-1.173982024E-1,2.672330133E-1
2.183513090E-1,-5.273818970E-2,2.700170279E-1,-1.262022406E-1,3.026838574E-1
2.234671430E-1,-2.813053131E-2,2.910328805E-1,-1.321552992E-1,3.208683335E-1
2.285829760E-1,-1.580047607E-2,2.930236757E-1,-1.636302322E-1,3.359871760E-1
2.336988090E-1,3.270149231E-3,2.763538957E-1,-2.174347639E-1,3.516533038E-1
2.388146430E-1,8.563995361E-4,2.438486218E-1,-2.254269421E-1,3.320846127E-1
2.439304760E-1,2.659606934E-2,2.026275992E-1,-2.284761667E-1,3.065398076E-1
2.490463090E-1,4.711914062E-2,1.789016128E-1,-1.893657744E-1,2.647364670E-1
2.541621430E-1,7.897663116E-2,1.490219235E-1,-1.626491547E-1,2.343066142E-1
2.592779760E-1,1.032066345E-1,1.272990108E-1,-1.435504258E-1,2.178609012E-1
2.643938090E-1,1.575403214E-1,1.489832401E-1,-8.693361282E-2,2.336073880E-1
2.695096430E-1,1.874275208E-1,1.450510025E-1,-6.432141364E-2,2.455730301E-1
2.746254760E-1,1.581211090E-1,1.436897516E-1,-6.541699171E-2,2.234466662E-1
2.797413090E-1,5.659103394E-2,9.747862816E-2,-6.188398600E-2,1.285855971E-1
2.848571430E-1,-5.447387695E-3,5.903285742E-2,-6.297433376E-2,8.648883743E-2
2.899729760E-1,-4.521179199E-2,2.808654308E-2,-6.120437384E-2,8.111063687E-2
2.950888090E-1,-6.548881531E-2,1.139271259E-2,-4.050464928E-2,7.784089827E-2
3.002046430E-1,-4.782295227E-2,-5.421817303E-3,-4.612481594E-2,6.666280456E-2
3.053204760E-1,-8.226871490E-2,-1.769006252E-2,-6.603045017E-2,1.069630783E-1
3.104363090E-1,-5.733203888E-2,-6.487548351E-3,-1.114593968E-1,1.255079603E-1
3.155521430E-1,1.662731171E-2,2.111643553E-2,-4.265837371E-2,5.041932360E-2
3.206679760E-1,6.819629669E-2,6.716626883E-2,9.635561705E-2,1.358176995E-1
3.257838090E-1,8.834552765E-2,4.197019339E-2,1.464398503E-1,1.760995717E-1
3.308996430E-1,1.223325729E-1,1.031738520E-2,1.008294970E-1,1.588656486E-1
3.360154760E-1,1.628789902E-1,-1.334905624E-3,6.038652360E-2,1.737178161E-1
3.411313090E-1,6.610965729E-2,1.513659954E-3,-1.525766551E-1,1.662901490E-1
3.462471430E-1,-1.352739334E-1,-3.328561783E-2,-6.054766476E-2,1.518979563E-1
3.513629760E-1,-1.922063828E-1,3.132522106E-2,-7.704772800E-2,2.094299774E-1
3.564788090E-1,-2.460279465E-1,1.421964169E-2,-2.096040547E-1,3.235209551E-1
3.615946430E-1,-2.071285248E-1,6.469070911E-3,-2.415755838E-1,3.182810666E-1
3.667104760E-1,-1.664810181E-1,-4.413422942E-2,-1.495400369E-1,2.280920477E-1
3.718263090E-1,-9.809494019E-2,-3.485310078E-2,1.022309065E-2,1.046033819E-1
3.769421430E-1,-5.899906158E-2,-2.099364996E-2,6.688039005E-2,9.162209984E-2
3.820579760E-1,-1.808071136E-2,-2.613469958E-2,5.455911160E-2,6.313977592E-2
3.871738090E-1,5.535888672E-2,9.057700634E-3,4.747499526E-2,7.348825385E-2
3.922896430E-1,1.018524170E-1,5.571275949E-2,-1.852536201E-2,1.175628149E-1
3.974054760E-1,1.194124222E-1,1.020044684E-1,-7.899247855E-2,1.757954772E-1
4.025213090E-1,1.202144623E-1,1.026708484E-1,-1.340417564E-1,2.072679727E-1
4.076371430E-1,7.375812531E-2,1.033813953E-1,-1.601538062E-1,2.043947543E-1
4.127529760E-1,5.626773834E-2,1.041355729E-1,-1.767055988E-1,2.126855533E-1
4.178688090E-1,4.847240448E-2,1.403955817E-1,-1.687925309E-1,2.248364113E-1
4.229846430E-1,3.133583069E-2,1.266427040E-1,-1.769493520E-1,2.198439946E-1
4.281004760E-1,-9.235382080E-3,1.366706491E-1,-2.037011385E-1,2.454756860E-1
4.332163090E-1,-4.695987701E-2,1.629495621E-1,-1.918587089E-1,2.560616215E-1
4.383321430E-1,-9.844970703E-2,1.343259215E-1,-1.754237711E-1,2.418869519E-1
4.434479760E-1,-1.351575851E-1,7.988607883E-2,-1.400900334E-1,2.104152463E-1
4.485638090E-1,-1.194114685E-1,3.064244986E-2,-7.676962018E-2,1.452295876E-1
4.536796430E-1,-1.204290390E-1,-2.273535728E-2,2.198979259E-3,1.225760393E-1
4.587954760E-1,-1.025276184E-1,-6.140339375E-2,8.447702974E-2,1.463511457E-1
4.639113090E-1,-5.879688263E-2,-8.763283491E-2,1.441067904E-1,1.786151007E-1
4.690271430E-1,-3.924083710E-2,-1.253963113E-1,1.717419177E-1,2.162391373E-1
4.741429760E-1,-1.517009735E-2,-1.413338482E-1,1.605964899E-1,2.144682286E-1
4.792588090E-1,-8.258819580E-4,-1.380506158E-1,1.356606930E-1,1.935522623E-1
4.843746430E-1,2.284145355E-2,-9.443810582E-2,8.469489217E-2,1.288934156E-1
4.894904760E-1,3.442859650E-2,-4.641148448E-2,5.817759037E-2,8.199991567E-2
4.946063090E-1,6.720733643E-2,-1.802760363E-2,2.258813381E-2,7.315766775E-2
4.997221430E-1,7.122993469E-2,1.956623793E-2,-3.921836615E-4,7.386944613E-2
5.048379760E-1,8.232879639E-2,4.735755920E-2,1.459331065E-2,9.609231938E-2
5.099538090E-1,1.336088181E-1,7.249939442E-2,3.426559269E-3,1.520500568E-1
5.150696430E-1,1.275053024E-1,5.710369349E-2,4.173688591E-3,1.397707181E-1
5.201854760E-1,1.404504776E-1,4.447788000E-2,-2.579740435E-2,1.495664553E-1
5.252456840E-1,1.390714645E-1,6.300914288E-2,-5.782787874E-2,1.632638597E-1
5.302620900E-1,9.980773926E-2,6.977969408E-2,-1.059181690E-1,1.613984171E-1
5.352784450E-1,4.907989502E-2,8.123421669E-2,-1.061117798E-1,1.423641242E-1
5.402947990E-1,-5.892753601E-3,6.887722015E-2,-9.159085155E-2,1.147505124E-1
5.453112050E-1,-6.982898712E-2,7.321345806E-2,-7.493442297E-2,1.259026037E-1
5.503275590E-1,-9.997463226E-2,4.890650511E-2,-3.210597485E-2,1.158342219E-1
5.553439650E-1,-1.488256454E-1,3.191286325E-2,1.241273433E-2,1.527140451E-1
5.603603200E-1,-1.308393478E-1,2.672612667E-2,3.478243202E-2,1.379965158E-1
5.653766740E-1,-1.343898773E-1,-2.224624157E-3,5.174885690E-2,1.440261513E-1
5.703930800E-1,-1.236858368E-1,-4.820525646E-3,4.002851993E-2,1.300911453E-1
5.754094340E-1,-1.059818268E-1,-2.409428358E-2,2.081441134E-2,1.106612933E-1
5.804257880E-1,-9.082984924E-2,-1.727890968E-2,1.697860658E-3,9.247434760E-2
5.854421950E-1,-5.682182312E-2,-3.167694807E-2,-3.155750036E-2,7.230507901E-2
5.904585490E-1,-1.836776733E-2,-7.923662663E-3,-5.956088006E-2,6.283038867E-2
5.954749550E-1,1.027488708E-2,2.304017544E-2,-8.984896541E-2,9.332341385E-2
6.004913090E-1,1.969814301E-2,8.245980740E-2,-1.457595974E-1,1.686223500E-1
6.055076630E-1,1.719474792E-2,8.230638504E-2,-1.675939709E-1,1.875039718E-1
6.105240700E-1,2.421474457E-2,1.131412983E-1,-1.584077924E-1,1.961640536E-1
6.155404240E-1,-6.794929504E-3,1.011736989E-1,-1.586938500E-1,1.883242588E-1
6.205567780E-1,2.805709839E-3,9.634733200E-2,-1.450166255E-1,1.741278326E-1
6.255731840E-1,-4.228401184E-2,9.150147438E-2,-1.411548257E-1,1.734506912E-1
6.305895380E-1,-3.713893890E-2,8.672553301E-2,-1.041746736E-1,1.405453004E-1
6.356058930E-1,-2.729225159E-2,4.869210720E-2,-9.578421712E-2,1.108620970E-1
6.406222990E-1,-3.414821625E-2,3.225344419E-2,-8.247402310E-2,9.491232703E-2
6.456386530E-1,-4.332351685E-2,-6.684064865E-4,-7.897122949E-2,9.007679483E-2
6.506550590E-1,-1.918888092E-2,-3.097420931E-2,-5.440945178E-2,6.548284689E-2
6.556714130E-1,-1.900482178E-2,-5.162322521E-2,-3.038942814E-2,6.284630438E-2
6.606877680E-1,1.204490662E-2,-6.495088339E-2,-2.079626173E-2,6.925446939E-2
6.657041740E-1,1.672363281E-2,-7.810893655E-2,-8.694224060E-3,8.035095143E-2
6.707205280E-1,4.273891449E-2,-6.967285275E-2,-1.083736122E-2,8.245222629E-2
6.757368820E-1,7.566833496E-2,-5.403897166E-2,-2.232065052E-2,9.562488595E-2
6.807532880E-1,7.746696472E-2,-7.646495104E-2,2.487063408E-3,1.088770171E-1
6.857696430E-1,7.925319672E-2,-9.161251783E-2,1.801726222E-2,1.224685443E-1
6.907860490E-1,1.095256805E-1,-8.037152886E-2,1.224496961E-2,1.364016005E-1
6.958024030E-1,1.656675339E-1,-6.432896852E-2,-3.136242554E-2,1.804648157E-1
7.008187570E-1,2.166070938E-1,-1.019525528E-2,-5.801651999E-2,2.244738134E-1
7.058351630E-1,2.149019241E-1,3.654468060E-2,-8.172173798E-2,2.328020471E-1
7.108515180E-1,2.227153778E-1,9.013950825E-2,-1.360197514E-1,2.760953517E-1
7.158678720E-1,2.090873718E-1,1.289266944E-1,-1.711533964E-1,2.993878866E-1
7.208842780E-1,1.836681366E-1,1.502105594E-1,-2.086855173E-1,3.159855087E-1
7.259006320E-1,1.845359802E-1,1.326524615E-1,-2.556436956E-1,3.420583322E-1
7.309170380E-1,1.829891205E-1,1.170844436E-1,-2.934265733E-1,3.650930553E-1
7.359333930E-1,1.742973328E-1,8.446675539E-2,-3.172746599E-1,3.717222118E-1
7.409497470E-1,2.249984741E-1,6.820905209E-2,-3.059333265E-1,3.858393298E-1
7.459661530E-1,2.372665405E-1,6.829398870E-2,-2.972120047E-1,3.863864074E-1
7.509825070E-1,2.660369873E-1,6.814420223E-2,-2.176338732E-1,3.504052136E-1
7.559989130E-1,2.731733322E-1,8.892089128E-2,-1.340561807E-1,3.170199582E-1
7.610152680E-1,2.754955292E-1,1.354942322E-1,-6.291545928E-2,3.133924514E-1
7.660316220E-1,2.445354462E-1,1.694263220E-1,-2.325835079E-2,2.984021010E-1
7.710480280E-1,1.734504700E-1,1.931976080E-1,-4.118103907E-2,2.628806939E-1
7.760643820E-1,9.343528748E-2,2.235720158E-1,-5.718368292E-2,2.489670114E-1
7.810807880E-1,-1.917552948E-2,2.628682852E-1,-7.119075209E-2,2.730120134E-1
7.860971430E-1,-1.000127792E-1,2.991122007E-1,-9.037555754E-2,3.280829256E-1
7.911134970E-1,-2.300662994E-1,3.180558085E-1,-1.057110131E-1,4.065277577E-1
7.961299030E-1,-3.305845261E-1,3.387192488E-1,-1.023744121E-1,4.842492939E-1
8.011462570E-1,-4.089174271E-1,3.661915064E-1,-9.481691569E-2,5.570457154E-1
8.061626110E-1,-4.676246643E-1,3.908558488E-1,-1.638469100E-2,6.096798990E-1
8.111790180E-1,-5.353507996E-1,3.725202084E-1,1.184365973E-1,6.628717914E-1
8.161953720E-1,-5.882854462E-1,3.897985220E-1,2.665804327E-1,7.543790698E-1
8.212117780E-1,-6.241807938E-1,4.090965986E-1,3.517794907E-1,8.250518168E-1
8.262281320E-1,-6.289396286E-1,4.161854386E-1,3.432869315E-1,8.286261480E-1
8.312444860E-1,-6.336879730E-1,4.301941991E-1,2.581510246E-1,8.082508568E-1
8.362608930E-1,-5.933513641E-1,4.341799021E-1,1.150438339E-1,7.441862081E-1
8.412772470E-1,-5.581512451E-1,4.070105553E-1,4.832223058E-3,6.908065973E-1
8.462936010E-1,-4.924497604E-1,3.345239758E-1,-1.011307836E-1,6.038546947E-1
8.513100070E-1,-3.941164017E-1,2.717962265E-1,-1.383736283E-1,4.983454503E-1
8.563263610E-1,-2.919006348E-1,2.069922686E-1,-1.353737265E-1,3.825935515E-1
8.613427680E-1,-1.620874405E-1,1.138679385E-1,-7.976770401E-2,2.135442165E-1
8.663591220E-1,-7.374286652E-2,3.802943230E-2,8.840665221E-3,8.344102974E-2
8.713754760E-1,4.234981537E-2,9.109377861E-4,7.096847892E-2,8.264902703E-2
8.763918820E-1,1.527194977E-1,-2.392530441E-2,1.281176209E-1,2.007729811E-1
8.814082360E-1,2.265710831E-1,-2.925431728E-2,1.829297841E-1,2.926663231E-1
8.864245900E-1,3.093080521E-1,-2.248829603E-2,2.589536905E-1,4.040225345E-1
8.914409970E-1,3.391103745E-1,-3.491926193E-2,3.754213452E-1,5.071058936E-1
8.964573510E-1,3.306360245E-1,-7.272124290E-3,4.223391414E-1,5.364172022E-1
9.014737570E-1,3.031768799E-1,-2.802103758E-2,4.384463727E-1,5.337945493E-1
9.064901110E-1,3.019971848E-1,-3.992319107E-2,3.435498774E-1,4.591543085E-1
9.115064650E-1,3.102836609E-1,-3.324270248E-2,2.240587473E-1,3.841657842E-1
9.165228720E-1,3.921155930E-1,-2.196049690E-2,1.424612105E-1,4.177703893E-1
9.215392260E-1,5.089416504E-1,2.761971951E-2,1.223226786E-1,5.241634193E-1
9.265556320E-1,6.486177444E-1,6.312912703E-2,1.725860536E-1,6.741485081E-1
9.315719860E-1,7.421073914E-1,8.486628532E-2,2.020220757E-1,7.737820014E-1
9.365883400E-1,7.399711609E-1,1.217719913E-1,2.084001601E-1,7.783420607E-1
9.416047470E-1,8.518857956E-1,2.020282149E-1,1.886228919E-1,8.956022575E-1
9.466211010E-1,7.848463058E-1,2.086035609E-1,1.640959680E-1,8.285086941E-1
9.516375070E-1,6.709098816E-1,1.845600009E-1,1.304569542E-1,7.079558461E-1
9.566538610E-1,6.149387360E-1,1.776389480E-1,1.663411856E-1,6.613430538E-1
9.616702150E-1,5.713396072E-1,1.377298832E-1,2.927393913E-1,6.565781132E-1
9.666866220E-1,4.830560684E-1,8.180403709E-2,4.049954116E-1,6.356542686E-1
9.717029760E-1,3.789215088E-1,2.642911673E-2,4.814941287E-1,6.132834614E-1
9.767193300E-1,3.184185028E-1,-1.890033484E-2,4.796423018E-1,5.760245683E-1
9.817357360E-1,2.750234604E-1,-3.077220917E-2,3.472770452E-1,4.440565040E-1
9.867520900E-1,2.081947327E-1,-5.954182148E-2,1.467281282E-1,2.615710588E-1
9.917684970E-1,1.608972549E-1,-6.926608086E-2,-1.043216586E-1,2.038840971E-1
9.967848510E-1,1.139841080E-1,-4.816240072E-2,-2.250173241E-1,2.567971765E-1
1.001801205E0,1.281833649E-2,-6.332421303E-2,-3.157885969E-1,3.223301159E-1
1.006817611E0,-1.184206009E-1,-8.138841391E-2,-3.318052888E-1,3.615829950E-1
1.011833965E0,-1.940031052E-1,-7.128953934E-2,-2.975226641E-1,3.622694286E-1
1.016850320E0,-2.262620926E-1,-3.086298704E-2,-2.490190268E-1,3.378720678E-1
1.021866726E0,-2.297658920E-1,2.105611563E-2,-2.030256391E-1,3.073355418E-1
1.026883080E0,-1.857948303E-1,8.422124386E-2,-1.814367771E-1,2.730059358E-1
1.031899486E0,-2.039022446E-1,1.421008110E-1,-1.972436905E-1,3.172914106E-1
1.036915840E0,-1.838521957E-1,1.806494594E-1,-2.290263474E-1,3.448027332E-1
1.041932195E0,-1.544790268E-1,2.261107564E-1,-2.299232483E-1,3.575675377E-1
1.046948601E0,-1.253376007E-1,2.643113136E-1,-2.308264077E-1,3.726269115E-1
1.051964955E0,-1.391563416E-1,2.787519693E-1,-1.987046301E-1,3.695276415E-1
1.056981309E0,-1.837234497E-1,2.813829184E-1,-1.695045978E-1,3.763807399E-1
1.061997715E0,-2.469167709E-1,2.577923536E-1,-1.638350040E-1,3.927679950E-1
1.067014070E0,-2.929897308E-1,2.175859213E-1,-1.556845307E-1,3.967672978E-1
1.072030476E0,-2.959327698E-1,2.085874081E-1,-1.350044012E-1,3.864079442E-1
1.077046830E0,-2.229003906E-1,1.614429951E-1,-4.503861070E-2,2.788851040E-1
1.082063184E0,-1.576280594E-1,1.286693811E-1,4.928028584E-2,2.093584518E-1
1.087079590E0,-7.632255554E-2,6.966733932E-2,1.029611528E-1,1.458755279E-1
1.092095945E0,2.084922791E-2,-2.967751026E-2,1.319574118E-1,1.368510264E-1
1.097112351E0,1.527490616E-1,-1.191146374E-1,9.829483926E-2,2.172152114E-1
1.102128705E0,2.597522736E-1,-2.319028974E-1,8.368177712E-2,3.581240529E-1
1.107145059E0,3.753376007E-1,-3.295341730E-1,4.975977540E-2,5.019433443E-1
1.112161465E0,4.710006714E-1,-4.259954691E-1,4.227048159E-2,6.364751101E-1
1.117177820E0,4.970598221E-1,-5.071111321E-1,5.701793730E-2,7.123771559E-1
1.122194226E0,5.134534836E-1,-5.752732754E-1,1.076896489E-1,7.785697667E-1
1.127210580E0,5.012817383E-1,-6.257798076E-1,1.324210167E-1,8.126617220E-1
1.132226934E0,4.774017334E-1,-6.682440042E-1,7.913102210E-2,8.250601087E-1
1.137243340E0,4.371204376E-1,-7.315776348E-1,-1.133610308E-2,8.522960870E-1
1.142259695E0,3.520526886E-1,-7.707011104E-1,-5.116446316E-2,8.488457453E-1
1.147276101E0,2.676744461E-1,-8.072450161E-1,-9.747222066E-3,8.505228589E-1
1.152292455E0,2.006044388E-1,-8.055946827E-1,5.051955581E-2,8.317314225E-1
1.157308809E0,1.578025818E-1,-8.135850430E-1,6.215994060E-2,8.310752885E-1
1.162325215E0,8.683872223E-2,-8.003267646E-1,5.231758952E-2,8.067223958E-1
1.167341570E0,-1.914787292E-2,-7.800371647E-1,2.362224460E-2,7.806296367E-1
1.172357976E0,-1.052980423E-1,-7.459427714E-1,-1.663674414E-2,7.535217828E-1
1.177374330E0,-1.978645325E-1,-6.979766488E-1,-1.109034196E-1,7.339082667E-1
1.182390684E0,-2.683067322E-1,-6.385966539E-1,-1.947264969E-1,7.195224788E-1
1.187407090E0,-2.907142639E-1,-5.727869868E-1,-2.969722450E-1,7.076667505E-1
1.192423445E0,-3.414793015E-1,-5.196810961E-1,-4.040194750E-1,7.415580160E-1
1.197439799E0,-3.729171753E-1,-5.174279809E-1,-4.853105247E-1,8.014519577E-1
1.202456205E0,-4.350605011E-1,-5.467589498E-1,-5.195387006E-1,8.707143333E-1
1.207472559E0,-4.350490570E-1,-5.432203412E-1,-5.165187120E-1,8.666877183E-1
1.212488913E0,-3.923683167E-1,-5.258761048E-1,-5.048823953E-1,8.278917844E-1
1.217505320E0,-2.645969391E-1,-4.826489091E-1,-5.224791765E-1,7.589110617E-1
1.222521674E0,-1.758670807E-1,-4.633748531E-1,-4.949334264E-1,7.004317105E-1
1.227538080E0,-9.737300873E-2,-4.584159851E-1,-4.389826655E-1,6.421312162E-1
1.232554434E0,-6.223964691E-2,-5.054627657E-1,-3.949038982E-1,6.444497420E-1
1.237570788E0,-1.793956757E-2,-5.404778719E-1,-3.677316904E-1,6.539608201E-1
1.242587195E0,5.919551849E-2,-5.682498217E-1,-4.978657365E-1,7.578141334E-1
1.247603549E0,2.092275620E-1,-5.914454460E-1,-6.846586466E-1,9.286233632E-1
1.252619903E0,3.437051773E-1,-5.958251953E-1,-7.901238799E-1,1.047586110E0
1.257636309E0,4.699134827E-1,-6.121731400E-1,-7.461121678E-1,1.073432812E0
1.262652663E0,4.977207184E-1,-6.093786955E-1,-6.509234309E-1,1.021160918E0
1.267669070E0,5.537862778E-1,-5.851695538E-1,-5.500490665E-1,9.755288943E-1
1.272685424E0,6.188783646E-1,-5.682442784E-1,-4.701640308E-1,9.627908423E-1
1.277701778E0,6.026744843E-1,-5.278859735E-1,-4.801948667E-1,9.340595510E-1
1.282718184E0,5.628366470E-1,-5.046235919E-1,-6.646055579E-1,1.006543893E0
1.287734538E0,4.805507660E-1,-4.438249469E-1,-8.147064447E-1,1.044823532E0
1.292750893E0,3.846826553E-1,-3.479994535E-1,-8.110646605E-1,9.627617818E-1
1.297767299E0,2.587471008E-1,-2.244137526E-1,-6.848744750E-1,7.657445011E-1
1.302783653E0,1.504602432E-1,-9.478282928E-2,-5.772354007E-1,6.040056103E-1
1.307800059E0,2.879238129E-2,3.835189342E-2,-5.427966118E-1,5.449110301E-1
1.312816413E0,-1.109352112E-1,1.580520868E-1,-5.854493976E-1,6.164722868E-1
1.317832820E0,-1.902666092E-1,3.021559715E-1,-6.474703550E-1,7.394034584E-1
1.322849174E0,-2.453031540E-1,4.658912420E-1,-6.072214842E-1,8.037077937E-1
1.327865528E0,-2.478256226E-1,5.893354416E-1,-4.157406390E-1,7.626100450E-1
1.332881934E0,-2.885227203E-1,6.987361908E-1,-2.507337928E-1,7.964578202E-1
1.337898288E0,-3.195991516E-1,7.325118780E-1,-1.672398746E-1,8.165086924E-1
1.342914643E0,-2.889356613E-1,7.765823603E-1,-1.366104186E-1,8.397775807E-1
1.347931049E0,-2.017889023E-1,8.024896383E-1,-1.178628579E-1,8.358229681E-1
1.352947403E0,-1.108360291E-2,8.012968302E-1,-6.428419054E-2,8.039477057E-1
1.357963757E0,1.660194397E-1,8.114181757E-1,-1.218480617E-1,8.371432735E-1
1.362980163E0,3.272876740E-1,7.807024717E-1,-1.309755892E-1,8.566026943E-1
1.367996518E0,4.728660583E-1,7.095474005E-1,-1.731531173E-1,8.700815046E-1
1.373012924E0,6.266508102E-1,6.245216131E-1,-1.841022074E-1,9.036659261E-1
1.378029278E0,7.648353577E-1,5.186511278E-1,-2.236292660E-1,9.507797670E-1
1.383045632E0,8.376617432E-1,3.895912170E-1,-1.863949895E-1,9.424444835E-1
1.388062038E0,8.623313904E-1,2.472914457E-1,-1.056702957E-1,9.032910369E-1
1.393078393E0,8.510723114E-1,1.604770422E-1,-2.700456232E-2,8.664907424E-1
1.398094747E0,7.709302902E-1,5.743181705E-2,-3.294537961E-2,7.737682625E-1
1.403111153E0,7.055702209E-1,4.767179489E-3,1.127822176E-1,7.145431347E-1
1.408127507E0,6.548261642E-1,-7.607936859E-3,2.268954366E-1,6.930632909E-1
1.413143913E0,6.019334793E-1,-3.886818886E-3,2.263439596E-1,6.430945567E-1
1.418160268E0,5.279169083E-1,-2.453422546E-2,2.620666921E-1,5.898958733E-1
1.423176622E0,4.564323425E-1,-5.807137489E-2,2.781880498E-1,5.376721668E-1
1.428193028E0,4.111852646E-1,-6.852567196E-2,2.519196570E-1,4.870652966E-1
1.433209382E0,3.753595352E-1,-6.083500385E-2,2.020581067E-1,4.306078922E-1
1.438225736E0,3.417797089E-1,-1.112867594E-1,8.979394287E-2,3.704876035E-1
1.443242143E0,3.296241760E-1,-1.118010283E-1,-2.037727833E-2,3.486643096E-1
1.448258497E0,3.865575790E-1,-1.220500469E-1,-1.077034511E-2,4.055107597E-1
1.453274903E0,4.074716568E-1,-8.186542988E-2,1.398219913E-1,4.385034652E-1
1.458291257E0,3.423824310E-1,-4.873681068E-2,2.565194070E-1,4.305847326E-1
1.463307611E0,2.249727249E-1,-4.658436775E-2,3.447260857E-1,4.142691208E-1
1.468324018E0,3.622817993E-2,-8.530449867E-2,4.188863933E-1,4.290164904E-1
1.473340372E0,-1.687602997E-1,-1.505563259E-1,5.480739474E-1,5.929015921E-1
1.478356778E0,-3.494834900E-1,-2.283388376E-1,6.454181671E-1,7.686624389E-1
1.483373132E0,-5.034971237E-1,-2.750060558E-1,6.869812012E-1,8.950312034E-1
1.488389486E0,-5.949640274E-1,-2.590491772E-1,7.755548954E-1,1.011224043E0
1.493405893E0,-6.382408142E-1,-1.871554852E-1,9.499267340E-1,1.159628955E0
1.498422247E0,-6.643228531E-1,-7.791399956E-2,1.207995296E0,1.380814281E0
1.503438601E0,-7.328319550E-1,2.350068092E-2,1.330146074E0,1.518842828E0
1.508455007E0,-7.482004166E-1,1.408054829E-1,1.370135307E0,1.567450416E0
1.513471361E0,-6.962928772E-1,2.380797863E-1,1.328211546E0,1.518437245E0
1.518487715E0,-5.488586426E-1,3.434021473E-1,1.146213889E0,1.316425890E0
1.523504122E0,-3.779602051E-1,4.131484032E-1,9.078955054E-1,1.066686350E0
1.528520476E0,-2.029085159E-1,4.015371799E-1,7.061587572E-1,8.372957441E-1
1.533536882E0,1.914787292E-2,3.872945309E-1,6.020144820E-1,7.160901698E-1
1.538553236E0,3.285217285E-1,3.533856869E-1,4.846043587E-1,6.838489265E-1
1.543569590E0,6.246538162E-1,2.830274105E-1,3.437914252E-1,7.671306598E-1
1.548585997E0,8.622341156E-1,1.763074398E-1,2.462861538E-1,9.138866740E-1
1.553602351E0,1.012828827E0,6.442046165E-2,2.590062618E-1,1.047404636E0
1.558618705E0,1.076694489E0,-2.884745598E-2,3.152549863E-1,1.122269533E0
1.563635111E0,1.061266899E0,-1.131312847E-1,2.700577378E-1,1.100916573E0
1.568651465E0,1.062309265E0,-1.859128475E-1,2.320059985E-1,1.103127982E0
1.573667820E0,1.022518158E0,-2.591345310E-1,2.592403889E-1,1.086231866E0
1.578684226E0,9.515228271E-1,-3.282246590E-1,3.164220452E-1,1.055106643E0
1.583700580E0,8.613214493E-1,-4.100139141E-1,2.983995080E-1,9.995140395E-1
1.588716986E0,8.283014297E-1,-5.116736889E-1,1.547695547E-1,9.858229240E-1
1.593733340E0,7.997617722E-1,-5.925681591E-1,-4.531919956E-2,9.963983868E-1
1.598749695E0,8.305797577E-1,-6.336658001E-1,-1.796804667E-1,1.060037806E0
1.603766101E0,8.609037399E-1,-6.804659367E-1,-2.145721316E-1,1.118136995E0
1.608782455E0,9.050397873E-1,-7.258210182E-1,-1.334457099E-1,1.167784623E0
1.613798809E0,9.319305420E-1,-7.339076996E-1,-3.416571021E-2,1.186710724E0
1.618815215E0,9.654893875E-1,-7.525501251E-1,-7.552206516E-3,1.224156234E0
1.623831570E0,1.077288628E0,-7.554512024E-1,-5.590260029E-3,1.315784389E0
1.628847976E0,1.154912949E0,-7.473704815E-1,-3.335161507E-2,1.376044653E0
1.633864330E0,1.236673355E0,-7.592422962E-1,-9.571391344E-2,1.454293988E0
1.638880684E0,1.298658848E0,-7.647650242E-1,-1.120663732E-1,1.511270729E0
1.643897090E0,1.271729946E0,-7.757987976E-1,-5.167493224E-2,1.490580803E0
1.648913445E0,1.232551575E0,-7.849421501E-1,-3.096519411E-2,1.461600632E0
1.653929799E0,1.197900295E0,-7.443523407E-1,-1.094721109E-1,1.414570489E0
1.658946205E0,1.120080471E0,-6.969542503E-1,-9.851509333E-2,1.322887264E0
1.663962559E0,1.013507843E0,-6.166613102E-1,1.436242461E-2,1.186455055E0
1.668978965E0,8.162431717E-1,-5.726792812E-1,1.238184273E-1,1.004761403E0
1.673995320E0,5.643348694E-1,-4.862177372E-1,3.234089613E-1,8.120805927E-1
1.679011674E0,3.653526306E-1,-3.860440254E-1,3.456806839E-1,6.340407475E-1
1.684028080E0,2.598104477E-1,-3.149647713E-1,2.805049717E-1,4.953658396E-1
1.689044434E0,1.972999573E-1,-2.133107185E-1,2.916423678E-1,4.116843530E-1
1.694060788E0,2.111902237E-1,-1.454131603E-1,3.528103530E-1,4.361438329E-1
1.699077195E0,2.390604019E-1,-1.138627529E-1,2.846342027E-1,3.887560053E-1
1.704093549E0,2.783985138E-1,-1.402051449E-1,1.351137757E-1,3.397336420E-1
1.709109955E0,4.125871658E-1,-2.054066658E-1,2.802067995E-2,4.617415146E-1
1.714126309E0,6.150751114E-1,-2.902221680E-1,-7.301788032E-2,6.840160161E-1
1.719142663E0,8.234682083E-1,-4.306607246E-1,-1.707046032E-1,9.448325838E-1
1.724159070E0,1.028080940E0,-5.742545128E-1,-2.678347826E-1,1.207664745E0
1.729175424E0,1.183524609E0,-7.354207039E-1,-2.919973731E-1,1.423670108E0
1.734191778E0,1.277725697E0,-9.314286709E-1,-1.187077016E-1,1.585633578E0
1.739208184E0,1.351384640E0,-1.152701378E0,1.041402817E-1,1.779271230E0
1.744224538E0,1.301696777E0,-1.387608051E0,3.646333218E-1,1.937221738E0
1.749240893E0,1.238656998E0,-1.588602543E0,5.553194880E-1,2.089571471E0
1.754257299E0,1.157422066E0,-1.774941206E0,6.284277439E-1,2.210195365E0
1.759273653E0,1.122444153E0,-1.932270527E0,6.099625826E-1,2.316377477E0
1.764290007E0,1.150410652E0,-2.029252052E0,5.719885826E-1,2.401765913E0
1.769306413E0,1.174453735E0,-2.120498896E0,6.197113395E-1,2.501979074E0
1.774322768E0,1.202013969E0,-2.114644766E0,7.263959050E-1,2.538545071E0
1.779339174E0,1.144928455E0,-2.080744982E0,8.729254603E-1,2.530288463E0
1.784355528E0,1.089665413E0,-1.975282192E0,1.044959545E0,2.486171937E0
1.789371882E0,9.958348274E-1,-1.807570219E0,1.194693923E0,2.384594446E0
1.794388288E0,8.446631432E-1,-1.548708200E0,1.261963010E0,2.168986757E0
1.799404643E0,6.772365570E-1,-1.226981401E0,1.244356036E0,1.874181063E0
1.804420997E0,4.818382263E-1,-8.255527020E-1,1.190000176E0,1.526370125E0
1.809437403E0,1.990747452E-1,-3.252029419E-1,1.175211668E0,1.235520203E0
1.814453757E0,-1.301393509E-1,2.022690773E-1,1.149549842E0,1.174441939E0
1.819470111E0,-4.769840240E-1,7.687129974E-1,1.100319147E0,1.424477328E0
1.824486518E0,-8.105649948E-1,1.254260540E0,1.077475786E0,1.841504598E0
1.829502872E0,-1.121676445E0,1.725375652E0,1.025118470E0,2.299118759E0
1.834519226E0,-1.394083023E0,2.107340336E0,8.783574104E-1,2.675044393E0
1.839535632E0,-1.537658691E0,2.358973980E0,7.635139227E-1,2.917551370E0
1.844551986E0,-1.529629707E0,2.465394020E0,6.855924129E-1,2.981270144E0
1.849568393E0,-1.559481621E0,2.447829723E0,9.901109934E-1,3.066622419E0
1.854584747E0,-1.338496208E0,2.304075718E0,8.299399614E-1,2.790902605E0
1.859601101E0,-9.677815437E-1,2.020127296E0,1.073382378E0,2.483881064E0
1.864617507E0,-5.429973602E-1,1.692145348E0,1.070120096E0,2.074453911E0
1.869633861E0,-8.771133423E-2,1.332678318E0,8.114899993E-1,1.562767032E0
1.874650215E0,3.796868324E-1,9.833793640E-1,4.950267673E-1,1.164580854E0
1.879666622E0,7.141480446E-1,7.190322876E-1,2.806072235E-1,1.051548988E0
1.884682976E0,9.189729691E-1,5.617222786E-1,1.285504103E-1,1.084697397E0
1.889699330E0,9.780602455E-1,4.423265457E-1,1.592695713E-2,1.073549386E0
1.894715736E0,9.564766884E-1,4.231476784E-1,-1.542475820E-1,1.057210447E0
1.899732090E0,9.120802879E-1,4.517860413E-1,-4.053567052E-1,1.095588945E0
1.904748445E0,8.042650223E-1,5.518412590E-1,-7.345367074E-1,1.221030375E0
1.909764851E0,5.571012497E-1,6.588687897E-1,-1.003715038E0,1.323598792E0
1.914781205E0,2.640309334E-1,8.945078850E-1,-1.239107490E0,1.550884928E0
1.919797611E0,-1.609396935E-1,1.114914417E0,-1.357031107E0,1.763652224E0
1.924813965E0,-5.074787140E-1,1.370101452E0,-1.462482929E0,2.067261220E0
1.929830320E0,-7.662687302E-1,1.645576000E0,-1.455151796E0,2.326489822E0
1.934846674E0,-9.760832787E-1,1.919354916E0,-1.466675282E0,2.605340331E0
1.939863080E0,-1.271470547E0,2.164520741E0,-1.367051601E0,2.858429196E0
1.944879434E0,-1.552078724E0,2.187325478E0,-8.618067503E-1,2.817099925E0
1.949895840E0,-1.773098469E0,2.426940918E0,-9.177343845E-1,3.142635327E0
1.954912195E0,-1.956487656E0,2.519655228E0,-7.804199457E-1,3.284137894E0
1.959928549E0,-1.867996216E0,2.619094849E0,-3.666377068E-1,3.237821937E0
1.964944955E0,-1.637030602E0,2.627725124E0,9.425675869E-2,3.097368699E0
1.969961309E0,-1.397030354E0,2.527390480E0,5.831383467E-1,2.946090083E0
1.974977663E0,-1.235785007E0,2.371317863E0,9.079562426E-1,2.823950696E0
1.979994070E0,-1.238673687E0,2.195444107E0,8.833999038E-1,2.671082687E0
1.985010424E0,-1.344933033E0,2.097945213E0,3.938655853E-1,2.522964344E0
1.990026778E0,-1.470617771E0,2.056918144E0,-3.599654436E-1,2.554056382E0
1.995043184E0,-1.587206364E0,2.119749069E0,-1.093067765E0,2.864848564E0
2.000059538E0,-1.692486286E0,2.135715008E0,-1.706585050E0,3.215310398E0
2.005075893E0,-1.746082783E0,2.191151142E0,-2.074230194E0,3.486026292E0
2.010092299E0,-1.724399567E0,2.276617050E0,-2.165959835E0,3.584399680E0
2.015108653E0,-1.703769684E0,2.304142952E0,-2.069660187E0,3.534883190E0
2.020125007E0,-1.693772316E0,2.302546978E0,-1.783018351E0,3.368937768E0
2.025141413E0,-1.632457733E0,2.212053776E0,-1.373158336E0,3.073054502E0
2.030157768E0,-1.469834805E0,1.984962940E0,-9.817619324E-1,2.657884256E0
2.035174122E0,-1.289651394E0,1.879457951E0,-4.207602739E-1,2.317887425E0
2.040190528E0,-1.123347759E0,1.835213661E0,1.185497046E-1,2.154988028E0
2.045206882E0,-9.614315033E-1,1.706143856E0,4.181786776E-1,2.002536092E0
2.050223236E0,-7.345266342E-1,1.525758743E0,6.186338663E-1,1.802824722E0
2.055239643E0,-5.072040558E-1,1.382572651E0,6.364957094E-1,1.604334715E0
2.060255997E0,-3.578906059E-1,1.326972961E0,7.803175449E-1,1.580455123E0
2.065272403E0,-3.292784691E-1,1.323005676E0,9.638957381E-1,1.669689589E0
2.070288757E0,-4.235672951E-1,1.313176155E0,1.001176119E0,1.704756431E0
2.075305111E0,-5.348587036E-1,1.233586311E0,7.307268977E-1,1.530284555E0
2.080321518E0,-5.260105133E-1,1.431384087E0,3.436447382E-1,1.563214371E0
2.085337872E0,-6.476845741E-1,1.808114052E0,4.139661789E-3,1.920622000E0
2.090354226E0,-1.014825344E0,2.157335281E0,-1.424272060E-1,2.388357491E0
2.095370632E0,-1.628500462E0,2.255344391E0,-3.863569498E-1,2.808534096E0
2.100386986E0,-2.534847736E0,2.130009651E0,-6.877574921E-1,3.381627497E0
2.105403340E0,-3.012019634E0,2.085193634E0,-8.811419010E-1,3.767851618E0
2.110419747E0,-3.065112114E0,2.002007484E0,-8.325688839E-1,3.754479616E0
2.115436101E0,-2.909446716E0,1.864464283E0,-7.094607353E-1,3.527668039E0
2.120452455E0,-2.740556717E0,1.675845146E0,-5.594564676E-1,3.260690051E0
2.125468861E0,-2.612969875E0,1.482098103E0,-4.467972517E-1,3.037079870E0
2.130485215E0,-2.482995033E0,1.310060978E0,-3.258352280E-1,2.826250643E0
2.135501570E0,-2.371507645E0,1.136371136E0,-2.848235369E-1,2.645092118E0
2.140517976E0,-2.256650925E0,1.004330635E0,-2.088263035E-1,2.478863015E0
2.145534330E0,-2.205562592E0,8.874664307E-1,-9.508705139E-2,2.379315985E0
2.150550684E0,-2.201629639E0,8.046545982E-1,2.290427685E-2,2.344177189E0
2.155567090E0,-2.286243916E0,7.503566742E-1,1.526434422E-1,2.411067482E0
2.160583445E0,-2.371648312E0,6.951551437E-1,2.392479181E-1,2.482981263E0
2.165599799E0,-2.422570229E0,6.721034050E-1,3.381633759E-1,2.536715193E0
2.170616205E0,-2.377890110E0,6.755943298E-1,4.137208462E-1,2.506382655E0
2.175632559E0,-2.340921402E0,6.741995811E-1,4.183466434E-1,2.471734613E0
2.180648913E0,-2.249564171E0,6.749663353E-1,4.401001930E-1,2.389520180E0
2.185665320E0,-2.101832390E0,6.991758347E-1,4.218386412E-1,2.254882277E0
2.190681674E0,-1.902507782E0,7.180953026E-1,3.583337069E-1,2.064848607E0
2.195698028E0,-1.677825928E0,7.008957863E-1,2.404702902E-1,1.834170305E0
2.200714434E0,-1.442181587E0,7.001471519E-1,6.815505028E-2,1.604599288E0
2.205730788E0,-1.200277328E0,6.609826088E-1,-1.440403461E-1,1.377792182E0
2.210747143E0,-1.006778240E0,6.123661995E-1,-3.556367159E-1,1.230882716E0
2.215763549E0,-7.920761108E-1,6.141386032E-1,-5.957968235E-1,1.165986554E0
2.220779903E0,-5.607995987E-1,6.305198669E-1,-7.976560593E-1,1.161166087E0
2.225796257E0,-3.509464264E-1,6.687574387E-1,-1.031159282E0,1.278158586E0
2.230812663E0,-1.573419571E-1,7.503623962E-1,-1.213897705E0,1.435739480E0
2.235829018E0,3.679752350E-2,7.940073013E-1,-1.405914664E0,1.615053465E0
2.240845372E0,1.238784790E-1,8.569769859E-1,-1.421101570E0,1.664116914E0
2.245861778E0,1.160697937E-1,9.032869339E-1,-1.401312470E0,1.671249868E0
2.250878132E0,3.745746613E-2,9.592394829E-1,-1.332407951E0,1.642210217E0
2.255894486E0,-1.072483063E-1,9.959931374E-1,-1.178509951E0,1.546735347E0
2.260910893E0,-3.321723938E-1,1.013709068E0,-9.826893806E-1,1.450387187E0
2.265927247E0,-6.229691505E-1,1.033925056E0,-7.397021055E-1,1.415715646E0
2.270943601E0,-9.195022583E-1,1.068948269E0,-4.708286524E-1,1.486544458E0
2.275960007E0,-1.202616692E0,1.109453678E0,-1.728105545E-1,1.645307831E0
2.280976361E0,-1.414398670E0,1.151378632E0,8.305621147E-2,1.825676501E0
2.285992715E0,-1.638822556E0,1.185166836E0,3.383386135E-1,2.050568900E0
2.291009122E0,-1.808993340E0,1.208566189E0,5.935983658E-1,2.255093824E0
2.296025476E0,-1.992230892E0,1.250135899E0,7.995648980E-1,2.484175461E0
2.301041830E0,-2.148279667E0,1.244932175E0,1.123433709E0,2.725264197E0
2.306058236E0,-2.318373203E0,1.235454082E0,1.199278355E0,2.887813995E0
2.311074590E0,-2.385764599E0,1.152204990E0,1.336564302E0,2.967465787E0
2.316090945E0,-2.279122353E0,1.128946781E0,1.460895181E0,2.933109998E0
2.321107351E0,-2.120845318E0,1.162907600E0,1.385759354E0,2.787591781E0
2.326123705E0,-1.827307701E0,1.158407688E0,1.211299777E0,2.479558218E0
2.331140059E0,-1.508646488E0,1.127392292E0,9.083666801E-1,2.090970500E0
2.336156465E0,-1.093038082E0,1.074863434E0,6.226912141E-1,1.654632285E0
2.341172820E0,-6.255273819E-1,9.846148491E-1,4.322869182E-1,1.244034922E0
2.346189174E0,-1.536135674E-1,8.667063713E-1,2.460966706E-1,9.139697114E-1
2.351205580E0,1.939101219E-1,7.262735367E-1,2.459382415E-1,7.909235134E-1
2.356221934E0,4.222140312E-1,5.993766785E-1,2.284387946E-1,7.679201610E-1
2.361238288E0,4.889116287E-1,4.768538475E-1,2.031257749E-1,7.125196510E-1
2.366254695E0,5.042710304E-1,3.899083138E-1,1.132486463E-1,6.474125587E-1
2.371271049E0,4.542632103E-1,3.268060684E-1,4.028367996E-2,5.610526227E-1
2.376287403E0,2.793326378E-1,3.114871979E-1,1.002013683E-3,4.183921617E-1
2.381303809E0,5.363464355E-2,3.056120872E-1,1.060479879E-2,3.104639828E-1
2.386320163E0,-2.541065216E-1,4.284443855E-1,1.419358253E-1,5.179580044E-1
2.391336518E0,-6.582617760E-1,5.697135925E-1,3.263210058E-1,9.297136882E-1
2.396352924E0,-9.746370316E-1,7.200012207E-1,4.880267084E-1,1.306326594E0
2.401369278E0,-1.208415508E0,9.746484756E-1,5.197990537E-1,1.637192337E0
2.406385632E0,-1.386159420E0,1.173193455E0,4.690538943E-1,1.875588541E0
2.411402038E0,-1.539329052E0,1.336819649E0,2.847748399E-1,2.058571692E0
2.416418393E0,-1.553059101E0,1.456285477E0,3.335690498E-2,2.129289235E0
2.421434747E0,-1.405912876E0,1.601135731E0,-2.410870790E-1,2.144376278E0
2.426451153E0,-1.181713581E0,1.656682014E0,-5.519473553E-1,2.108480061E0
2.431467507E0,-1.016553879E0,1.563716412E0,-8.064056039E-1,2.031964764E0
2.436483861E0,-8.648962975E-1,1.470815659E0,-9.517723322E-1,1.953769403E0
2.441500268E0,-8.411512375E-1,1.356870174E0,-1.019564390E0,1.894239589E0
2.446516622E0,-9.069023132E-1,1.265001297E0,-1.167185664E0,1.945513419E0
2.451532976E0,-1.049975395E0,1.221628189E0,-1.287004948E0,2.061845168E0
2.456549382E0,-1.261050224E0,1.219061852E0,-1.460327625E0,2.282305028E0
2.461565736E0,-1.502368927E0,1.187098503E0,-1.611134052E0,2.502412473E0
2.466582090E0,-1.750330925E0,1.216149807E0,-1.674966455E0,2.710754752E0
2.471598445E0,-1.950568199E0,1.283874035E0,-1.682073355E0,2.877919319E0
2.476614851E0,-2.115117073E0,1.304057121E0,-1.614589691E0,2.963306444E0
2.481631205E0,-2.167838097E0,1.262097836E0,-1.706869602E0,3.034108897E0
2.486647611E0,-2.204682350E0,1.189017296E0,-1.623358965E0,2.984908830E0
2.491663965E0,-2.134626389E0,1.063768387E0,-1.543816090E0,2.841056338E0
2.496680320E0,-2.007847786E0,9.203443527E-1,-1.510563374E0,2.675871478E0
2.501696674E0,-1.773998260E0,7.831444740E-1,-1.464167595E0,2.429850169E0
2.506713080E0,-1.526280403E0,6.908564568E-1,-1.497222066E0,2.246884160E0
2.511729434E0,-1.281165123E0,7.013201714E-1,-1.487589121E0,2.084743497E0
2.516745788E0,-1.091285706E0,7.139081955E-1,-1.524236917E0,2.005958021E0
2.521762195E0,-9.517660141E-1,6.975150108E-1,-1.555839896E0,1.952696474E0
2.526778549E0,-7.528371811E-1,7.355160713E-1,-1.453417897E0,1.794483574E0
2.531794955E0,-6.406030655E-1,7.319617271E-1,-1.137679815E0,1.496815159E0
2.536811309E0,-5.673418045E-1,7.367510796E-1,-7.451073527E-1,1.191580397E0
2.541827663E0,-5.450534821E-1,7.784214020E-1,-3.921643496E-1,1.028015591E0
2.546844018E0,-5.760955811E-1,8.090763092E-1,-1.474473774E-1,1.004107226E0
2.551860424E0,-5.529165268E-1,8.835873604E-1,-5.113345385E-2,1.043579388E0
2.556876778E0,-5.064659119E-1,9.569458961E-1,-6.753760576E-2,1.084810811E0
2.561893132E0,-2.671089172E-1,9.911193848E-1,-5.736382306E-2,1.028083371E0
2.566909538E0,6.456184387E-2,1.075050592E0,-8.164605498E-2,1.080077815E0
2.571925893E0,3.927850723E-1,1.084402561E0,2.296686172E-2,1.153575530E0
2.576942247E0,5.166244507E-1,1.205233335E0,-1.453946978E-1,1.319328554E0
2.581958653E0,5.007619858E-1,1.379486322E0,-1.327149272E-1,1.473552962E0
2.586975007E0,5.581159592E-1,1.482861280E0,-1.966682971E-1,1.596574276E0
2.591991361E0,7.840642929E-1,1.527352571E0,-6.627437472E-2,1.718125428E0
2.597007715E0,9.797916412E-1,1.443361521E0,1.055789292E-1,1.747693065E0
2.602024122E0,1.267319679E0,1.341325521E0,2.738140225E-1,1.865536771E0
2.607040476E0,1.636873722E0,1.245064497E0,4.028229415E-1,2.095663977E0
2.612056882E0,1.913710117E0,1.111068010E0,4.732271433E-1,2.262896919E0
2.617073236E0,2.229301453E0,9.580905437E-1,4.294179082E-1,2.464167648E0
2.622089590E0,2.480823994E0,8.721048832E-1,3.531062007E-1,2.653250573E0
2.627105945E0,2.806994915E0,8.122789860E-1,3.468570113E-1,2.942673511E0
2.632122351E0,3.064277649E0,7.616615295E-1,3.673479557E-1,3.178815867E0
2.637138705E0,3.336457729E0,7.058117390E-1,4.127355516E-1,3.435181367E0
2.642155059E0,3.582979202E0,6.879601479E-1,4.927148819E-1,3.681548191E0
2.647171465E0,3.801437378E0,6.501879692E-1,5.389152765E-1,3.894110965E0
2.652187820E0,4.037301540E0,6.114981174E-1,5.967593193E-1,4.126724532E0
2.657204174E0,4.326385975E0,5.931327343E-1,6.522359848E-1,4.415295440E0
2.662220580E0,4.647120476E0,5.375847816E-1,6.838732362E-1,4.727833406E0
2.667236934E0,4.951678276E0,4.518533945E-1,7.399331331E-1,5.027006095E0
2.672253288E0,5.163634300E0,2.711132765E-1,8.160303235E-1,5.234742313E0
2.677269695E0,5.366795540E0,1.528631449E-1,8.954162598E-1,5.443127023E0
2.682286049E0,5.539708614E0,1.555478573E-2,9.778213501E-1,5.625366484E0
2.687302403E0,5.730223179E0,-1.316342354E-1,1.079833508E0,5.832565958E0
2.692318809E0,5.907297134E0,-2.266396284E-1,1.134185910E0,6.019460327E0
2.697335163E0,6.068554878E0,-3.345152140E-1,1.159305215E0,6.187345741E0
2.702351518E0,6.120885372E0,-3.957332969E-1,1.105157733E0,6.232432607E0
2.707367872E0,6.198298931E0,-4.323680401E-1,1.016157866E0,6.295905699E0
2.712384278E0,6.198070526E0,-5.018240809E-1,8.584861755E-1,6.277332568E0
2.717400632E0,6.084597588E0,-6.112642288E-1,6.209361553E-1,6.146668485E0
2.722416986E0,5.841381073E0,-7.608227730E-1,3.787327409E-1,5.902882569E0
2.727433393E0,5.380332470E0,-9.909037948E-1,1.030502617E-1,5.471790125E0
2.732449747E0,4.615965366E0,-1.430516481E0,-1.479650587E-1,4.834812026E0
2.737466101E0,4.012397289E0,-1.607168078E0,-5.530593395E-1,4.357544707E0
2.742482507E0,3.750939369E0,-1.540695190E0,-8.416213393E-1,4.141450748E0
2.747498861E0,3.661269665E0,-1.499750018E0,-8.917737603E-1,4.055786744E0
2.752515215E0,3.618894577E0,-1.522006989E0,-7.987221479E-1,4.006352494E0
2.757531622E0,3.599900723E0,-1.583340168E0,-6.155937910E-1,3.980603851E0
2.762547976E0,3.537430286E0,-1.661715269E0,-5.641920567E-1,3.948800241E0
2.767564330E0,3.441194057E0,-1.694630623E0,-5.168108940E-1,3.870488727E0
2.772580684E0,3.339951038E0,-1.708338976E0,-4.480828047E-1,3.778157381E0
2.777597090E0,3.231287003E0,-1.729649305E0,-3.592011034E-1,3.682652284E0
2.782613445E0,3.229926586E0,-1.782387495E0,-1.527440548E-1,3.692243448E0
2.787629799E0,3.338076115E0,-1.852160692E0,8.124493062E-2,3.818357254E0
2.792646205E0,3.577051163E0,-1.933895350E0,3.046022654E-1,4.077748004E0
2.797662559E0,3.932284355E0,-2.027300835E0,4.917187393E-1,4.451358921E0
2.802678913E0,4.229097843E0,-2.137023926E0,6.072047949E-1,4.777116022E0
2.807695320E0,4.491542339E0,-2.305215836E0,6.590299010E-1,5.091394018E0
2.812711674E0,4.686181545E0,-2.493742466E0,5.712710023E-1,5.339044813E0
2.817728028E0,4.784495831E0,-2.616135120E0,4.414395690E-1,5.470871248E0
2.822744434E0,4.894223690E0,-2.717634201E0,3.019205332E-1,5.606256968E0
2.827760788E0,5.041641235E0,-2.767193317E0,1.730599552E-1,5.753734001E0
2.832777143E0,5.202756405E0,-2.760006905E0,1.500788182E-1,5.891420540E0
2.837793497E0,5.327324867E0,-2.736927509E0,-1.058529317E-2,5.989263267E0
2.842809903E0,5.515778542E0,-2.695306301E0,-1.339417547E-1,6.140556112E0
2.847826257E0,5.667604446E0,-2.613593102E0,-1.456866264E-1,6.242902663E0
2.852842611E0,5.720707417E0,-2.513297081E0,1.215630770E-2,6.248464078E0
2.857859018E0,5.670431137E0,-2.487550259E0,2.651174963E-1,6.197740141E0
2.862875372E0,5.547995090E0,-2.445053577E0,4.428862631E-1,6.079036500E0
2.867891726E0,5.312795162E0,-2.347926617E0,5.604137182E-1,5.835461881E0
2.872908080E0,5.086744785E0,-2.256541729E0,6.031950712E-1,5.597392016E0
2.877924486E0,4.872101307E0,-2.132762432E0,6.242959499E-1,5.354978260E0
2.882940840E0,4.697434902E0,-1.966931939E0,6.939217448E-1,5.139673463E0
2.887957195E0,4.631897926E0,-1.789854407E0,7.575538158E-1,5.023140948E0
2.892973601E0,4.531809330E0,-1.620330691E0,5.778664351E-1,4.847339164E0
2.897989955E0,4.490417957E0,-1.440909386E0,3.199304640E-1,4.726777844E0
2.903006309E0,4.371364594E0,-1.270203233E0,4.502560943E-2,4.552391895E0
2.908022715E0,4.193935871E0,-1.052607775E0,-1.168957502E-1,4.325591964E0
2.913039070E0,3.991755009E0,-8.188090324E-1,-2.609900236E-1,4.083218348E0
2.918055424E0,3.626245022E0,-5.616626740E-1,-2.854872346E-1,3.680573444E0
2.923071778E0,3.198192596E0,-3.023931980E-1,-1.445268393E-1,3.215706071E0
2.928088184E0,2.681466103E0,-1.714897156E-2,1.298288107E-1,2.684662002E0
2.933104538E0,2.112148762E0,2.631194592E-1,4.034826756E-1,2.166380048E0
2.938120893E0,1.490404606E0,5.239703655E-1,6.156917810E-1,1.695561029E0
2.943137299E0,9.167861938E-1,8.442859650E-1,6.584189534E-1,1.409550011E0
2.948153653E0,3.720855713E-1,1.178276300E0,6.010458469E-1,1.374059250E0
2.953170007E0,-4.091262817E-4,1.549457312E0,4.724475145E-1,1.619884188E0
2.958186413E0,-2.990751266E-1,1.914248228E0,2.914606333E-1,1.959270658E0
2.963202768E0,-4.165277481E-1,2.239010334E0,5.091834068E-2,2.277993705E0
2.968219122E0,-3.770666122E-1,2.516459942E0,-1.459659338E-1,2.548736142E0
2.973235476E0,-2.576551437E-1,2.782102346E0,-2.244616747E-1,2.803009576E0
2.978251882E0,-1.085186005E-1,2.993039131E0,-2.243286371E-1,3.003395223E0
2.983268236E0,1.393556595E-1,3.173240423E0,-1.314747930E-1,3.179018780E0
2.988284590E0,3.806943893E-1,3.287209988E0,2.379639745E-1,3.317725814E0
2.993300945E0,5.772476196E-1,3.330334902E0,3.192653954E-1,3.395036931E0
2.998317351E0,8.868503571E-1,3.317475557E0,4.007067978E-1,3.457269669E0
3.003333705E0,1.168369770E0,3.244155169E0,3.528388441E-1,3.466139917E0
3.008350059E0,1.431509495E0,3.141999483E0,-9.957909584E-3,3.452749534E0
3.013366465E0,1.690804482E0,2.985261202E0,-4.144188762E-1,3.455770137E0
3.018382820E0,1.951231003E0,2.858297825E0,-8.094578385E-1,3.554207489E0
3.023399174E0,2.186624050E0,2.747227907E0,-1.031199932E0,3.659502591E0
3.028415528E0,2.284791946E0,2.666786194E0,-9.303231239E-1,3.632839655E0
3.033431934E0,2.274905205E0,2.679725170E0,-7.905748487E-1,3.602933426E0
3.038448288E0,2.140489578E0,2.702325344E0,-7.646290660E-1,3.531135159E0
3.043464643E0,1.874465942E0,2.750985146E0,-7.875091434E-1,3.420776592E0
3.048481049E0,1.551033974E0,2.842136383E0,-8.780025244E-1,3.354747985E0
3.053497403E0,1.081606865E0,2.927333832E0,-9.502667189E-1,3.262232918E0
3.058513757E0,5.856704712E-1,3.077802181E0,-1.021074295E0,3.295219095E0
3.063530111E0,1.227521896E-1,3.228372574E0,-1.124313593E0,3.420751179E0
3.068546518E0,-4.342098236E-1,3.388105392E0,-1.161970377E0,3.608042610E0
3.073562872E0,-9.251823425E-1,3.549491405E0,-1.083900452E0,3.824878010E0
3.078579226E0,-1.417328835E0,3.628708363E0,-9.098951221E-1,4.000531782E0
3.083595632E0,-1.824671745E0,3.747684002E0,-7.674357891E-1,4.238339303E0
3.088611986E0,-2.113780975E0,3.839628696E0,-5.853480101E-1,4.421928406E0
3.093628340E0,-2.375390053E0,3.857046604E0,-3.651194572E-1,4.544513024E0
3.098644695E0,-2.480126381E0,3.798027039E0,-3.445038795E-1,4.549144884E0
3.103661101E0,-2.588115692E0,3.689295769E0,-2.320733070E-1,4.512549626E0
3.108677455E0,-2.737651348E0,3.547555923E0,-9.973335266E-2,4.482168524E0
3.113693809E0,-2.842128277E0,3.435637474E0,9.244918823E-3,4.458854501E0
3.118710215E0,-2.836879730E0,3.372953415E0,1.862343550E-1,4.411279245E0
3.123726570E0,-2.855615139E0,3.280951023E0,2.639628649E-1,4.357620203E0
3.128742924E0,-2.950681686E0,3.209959984E0,2.637420893E-1,4.368057395E0
3.133759278E0,-3.169755459E0,3.124069214E0,2.122471333E-1,4.455581552E0
3.138775684E0,-3.443164349E0,3.001737595E0,1.997154951E-1,4.572274663E0
3.143792038E0,-3.715832233E0,2.862151623E0,2.169018984E-1,4.695355954E0
3.148808393E0,-4.076525211E0,2.671415329E0,3.164547682E-1,4.884123389E0
3.153824747E0,-4.470196247E0,2.515451908E0,2.900592089E-1,5.137537069E0
3.158841153E0,-4.823403358E0,2.331561089E0,2.566599846E-1,5.363512973E0
3.163857507E0,-5.201219082E0,2.116876125E0,3.597662449E-1,5.627013081E0
3.168873861E0,-5.459839821E0,1.862033367E0,1.558365822E-1,5.770728218E0
3.173890215E0,-5.546905518E0,1.612410069E0,-3.551125526E-3,5.776507566E0
3.178906622E0,-5.658317089E0,1.375332355E0,-1.912449598E-1,5.826205112E0
3.183922976E0,-5.724237442E0,1.167826176E0,-4.390323162E-1,5.858622845E0
3.188939330E0,-5.804104805E0,9.302506447E-1,-7.070542574E-1,5.920551036E0
3.193955736E0,-5.893173218E0,7.655429840E-1,-9.800186157E-1,6.022954684E0
3.198972090E0,-6.064414024E0,6.840438843E-1,-9.670853615E-1,6.179019954E0
3.203988445E0,-5.929153919E0,5.720438957E-1,-1.139804006E0,6.064755031E0
3.209004799E0,-5.788093567E0,4.663896561E-1,-1.136323929E0,5.916990664E0
3.214021205E0,-5.769556999E0,3.894095421E-1,-1.060933828E0,5.879201336E0
3.219037559E0,-5.834645748E0,2.531456947E-1,-9.172914028E-1,5.911733863E0
3.224053913E0,-5.934955597E0,1.633238792E-1,-7.858290672E-1,5.988981545E0
3.229070320E0,-6.080158234E0,4.326295853E-2,-6.559710503E-1,6.115594317E0
3.234086674E0,-6.293869972E0,-1.116991043E-1,-6.232230663E-1,6.325636957E0
3.239103028E0,-6.483112812E0,-2.230277061E-1,-5.987260342E-1,6.514519626E0
3.244119382E0,-6.659710407E0,-3.218727112E-1,-6.807463169E-1,6.702145947E0
3.249135788E0,-6.660972595E0,-3.341646194E-1,-7.499811649E-1,6.711385375E0
3.254152143E0,-6.524904728E0,-3.171992302E-1,-8.528084755E-1,6.588040631E0
3.259168497E0,-6.268176556E0,-2.468729019E-1,-9.388790131E-1,6.342907643E0
3.264184851E0,-6.101275921E0,-1.853361130E-1,-8.311440945E-1,6.160415395E0
3.269201257E0,-6.048350811E0,-9.705162048E-2,-6.422837973E-1,6.083132008E0
3.274217611E0,-6.020983696E0,-4.198980331E-2,-5.518431664E-1,6.046365742E0
3.279233965E0,-5.971718311E0,7.999324799E-2,-5.119298697E-1,5.994154711E0
3.284250372E0,-5.865423203E0,2.012028694E-1,-4.990353584E-1,5.890051632E0
3.289266726E0,-5.779436111E0,3.185939789E-1,-5.873714685E-1,5.817936845E0
3.294283080E0,-5.616276741E0,4.626011848E-1,-7.681541443E-1,5.687409347E0
3.299299434E0,-5.336061001E0,6.516575813E-1,-9.222705364E-1,5.454244911E0
3.304315840E0,-5.016246319E0,8.178849220E-1,-1.067350984E0,5.193351615E0
3.309332195E0,-4.709953785E0,1.001399517E0,-1.173013210E0,4.956049399E0
3.314348549E0,-4.324275970E0,1.206567287E0,-1.165679574E0,4.638316091E0
3.319364903E0,-3.912402630E0,1.354046345E0,-1.016798615E0,4.263122713E0
3.324381309E0,-3.546784401E0,1.464687347E0,-7.939370871E-1,3.918587081E0
3.329397663E0,-3.201967239E0,1.485064030E0,-5.736773014E-1,3.575907580E0
3.334414018E0,-2.888264179E0,1.476768494E0,-2.599635124E-1,3.254304254E0
3.339430372E0,-2.533961296E0,1.411184311E0,1.187311411E-1,2.902843105E0
3.344446778E0,-2.110634804E0,1.383978367E0,4.244784117E-1,2.559366585E0
3.349463132E0,-1.694940567E0,1.371463299E0,7.284633517E-1,2.298780973E0
3.354479486E0,-1.312989712E0,1.362057209E0,9.196170568E-1,2.103529737E0
3.359495893E0,-1.021363735E0,1.382961273E0,9.153357744E-1,1.947717983E0
3.364512247E0,-6.973948479E-1,1.439670563E0,7.573558092E-1,1.769914892E0
3.369528601E0,-4.287462234E-1,1.520967484E0,4.908824563E-1,1.654729886E0
3.374544955E0,-2.048206329E-1,1.575107098E0,9.372991323E-2,1.591131408E0
3.379561361E0,-9.234285355E-2,1.592875004E0,-2.752548456E-1,1.619118035E0
3.384577715E0,-1.480665207E-1,1.600992203E0,-6.026785970E-1,1.717067622E0
3.389594070E0,-2.756943703E-1,1.571202278E0,-9.825177193E-1,1.873506086E0
3.394610424E0,-4.659471512E-1,1.517578125E0,-1.311565638E0,2.059212115E0
3.399626830E0,-7.046427727E-1,1.396980286E0,-1.402782440E0,2.101398089E0
3.404643184E0,-1.037813187E0,1.242321014E0,-1.373013854E0,2.122636275E0
3.409659538E0,-1.370118141E0,1.082028389E0,-1.182901502E0,2.108853982E0
3.414675893E0,-1.658586025E0,9.423222542E-1,-8.853659034E-1,2.103033908E0
3.419692299E0,-1.795431614E0,9.144778252E-1,-5.199822783E-1,2.080919495E0
3.424708653E0,-1.782970428E0,9.842724800E-1,-1.160892248E-1,2.039914844E0
3.429725007E0,-1.678480625E0,1.099237919E0,9.077906609E-2,2.008447672E0
3.434741361E0,-1.553827763E0,1.247283459E0,2.314397097E-1,2.005906549E0
3.439757768E0,-1.404401302E0,1.377861977E0,2.302444577E-1,1.980873331E0
3.444774122E0,-1.404950619E0,1.471533775E0,4.756492376E-2,2.035082385E0
3.449790476E0,-1.476887703E0,1.594714642E0,-2.420741916E-1,2.186986966E0
3.454806882E0,-1.448138714E0,1.627681255E0,-2.441495061E-1,2.192273018E0
3.459823236E0,-1.290211678E0,1.656653404E0,-1.547086239E-1,2.105488407E0
3.464839590E0,-1.086548328E0,1.656059265E0,1.559165120E-2,1.980748005E0
3.469855945E0,-7.647380829E-1,1.624735832E0,1.963289380E-1,1.806415210E0
3.474872351E0,-3.524417877E-1,1.559742451E0,2.354681641E-1,1.616309680E0
3.479888705E0,1.429548264E-1,1.437304497E0,1.289827228E-1,1.450143731E0
3.484905059E0,2.977356911E-1,1.343039989E0,1.345414519E-1,1.382209954E0
3.489921413E0,1.424179077E-1,1.423771381E0,4.238874316E-1,1.492343245E0
3.494937820E0,-1.962966919E-1,1.645220280E0,3.796817660E-1,1.699835405E0
3.499954174E0,-3.644227982E-1,1.854153633E0,3.017112017E-1,1.913561946E0
3.504970528E0,-4.888734818E-1,2.081734657E0,4.543617964E-1,2.186106380E0
3.509986882E0,-6.390848160E-1,2.256249905E0,4.261771739E-1,2.383426109E0
3.515003288E0,-7.049665451E-1,2.418626785E0,5.708856583E-1,2.583146103E0
3.520019643E0,-7.299041748E-1,2.489721298E0,5.796995163E-1,2.658481479E0
3.525035997E0,-8.601589203E-1,2.509787560E0,5.123879313E-1,2.702119234E0
3.530052403E0,-9.784622192E-1,2.555407524E0,3.901259303E-1,2.763999669E0
3.535068757E0,-8.600215912E-1,2.636326790E0,3.035596609E-1,2.789624446E0
3.540085111E0,-6.388301849E-1,2.650159836E0,2.544138134E-1,2.737914818E0
3.545101465E0,-4.896650314E-1,2.515594482E0,1.265390813E-1,2.565930549E0
3.550117872E0,-4.148750305E-1,2.419358730E0,-7.771198452E-2,2.455902504E0
3.555134226E0,-4.003114700E-1,2.308422089E0,-1.636719108E-1,2.348584745E0
3.560150580E0,-4.532718658E-1,2.172979832E0,-6.135790050E-2,2.220599362E0
3.565166934E0,-4.758443832E-1,2.041471958E0,1.269189566E-1,2.100034298E0
3.570183340E0,-4.632787704E-1,1.949861050E0,2.149888277E-1,2.015640228E0
3.575199695E0,-3.293752670E-1,1.955912590E0,1.327607185E-1,1.987890222E0
3.580216049E0,-1.124486923E-1,1.923592091E0,9.832355380E-2,1.929383000E0
3.585232403E0,1.707506180E-1,1.884411335E0,2.592041492E-1,1.909803300E0
3.590248809E0,4.866218567E-1,1.860024691E0,1.843995750E-1,1.931449167E0
3.595265163E0,6.650295258E-1,1.945427656E0,3.335572481E-1,2.082837841E0
3.600281518E0,5.838298798E-1,2.137258291E0,2.677200735E-1,2.231681960E0
3.605297872E0,4.558858871E-1,2.451469421E0,2.555698156E-1,2.506561429E0
3.610314278E0,3.480405807E-1,2.801384211E0,3.102732897E-1,2.839921699E0
3.615330632E0,2.936143875E-1,2.973743677E0,3.944988251E-1,3.014131747E0
3.620346986E0,2.995567322E-1,2.937162161E0,4.557675123E-1,2.987370051E0
3.625363393E0,4.423055649E-1,2.797000885E0,3.722351193E-1,2.856117495E0
3.630379747E0,6.666803360E-1,2.655995131E0,2.662146688E-1,2.751298431E0
3.635396101E0,1.056516647E0,2.471695423E0,1.698992997E-1,2.693394042E0
3.640412455E0,1.595067978E0,2.299762249E0,9.735780954E-2,2.800469032E0
3.645428809E0,2.191268444E0,2.128102303E0,2.221125364E-2,3.054663671E0
3.650445215E0,2.818680763E0,1.899011374E0,-2.916708589E-2,3.398831588E0
3.655461570E0,3.491472244E0,1.640654325E0,-1.003696918E-1,3.859041218E0
3.660477924E0,4.128343105E0,1.367409468E0,-1.268160343E-1,4.350759446E0
3.665494330E0,4.755672455E0,1.100712776E0,-1.586205810E-1,4.883968632E0
3.670510684E0,5.356809616E0,8.382599354E-1,-1.240084767E-1,5.423418395E0
3.675527038E0,5.955696106E0,6.586122513E-1,-2.485415339E-2,5.992053399E0
3.680543393E0,6.373037338E0,4.753538370E-1,3.135839105E-2,6.390817595E0
3.685559799E0,6.814659119E0,2.784930468E-1,1.686449647E-1,6.822432001E0
3.690576153E0,7.134709358E0,4.382741451E-2,2.341462672E-1,7.138684959E0
3.695592507E0,7.316647530E0,-1.929949522E-1,3.068513870E-1,7.325621878E0
3.700608861E0,7.540001869E0,-3.725442886E-1,2.888619900E-1,7.554724263E0
3.705625268E0,7.654042244E0,-5.673866868E-1,1.892204583E-1,7.677375509E0
3.710641622E0,7.594377518E0,-7.973147035E-1,3.451070189E-2,7.636194838E0
3.715657976E0,7.399538517E0,-1.060360551E0,-8.071690798E-3,7.475132100E0
3.720674330E0,7.105678558E0,-1.380546927E0,-4.593348503E-2,7.238693769E0
3.725690736E0,6.808677673E0,-1.686279297E0,-5.655524135E-2,7.014615315E0
3.730707090E0,6.537294865E0,-1.896631956E0,-1.761423498E-1,6.809145545E0
3.735723445E0,6.291527748E0,-1.978557825E0,-2.482027709E-1,6.599970991E0
3.740739799E0,6.126387119E0,-2.047275305E0,-2.904052436E-1,6.465933074E0
3.745756205E0,6.006005287E0,-2.071365118E0,-3.209275007E-1,6.361261465E0
3.750772559E0,5.858637333E0,-2.106392622E0,-2.569388151E-1,6.231094513E0
3.755788913E0,5.725057602E0,-2.231186867E0,-3.942159563E-2,6.144593839E0
3.760805268E0,5.612442970E0,-2.345902443E0,2.893858850E-1,6.089870159E0
3.765821674E0,5.484960556E0,-2.479591846E0,4.799886346E-1,6.038506199E0
3.770838028E0,5.467005730E0,-2.544147730E0,5.396028757E-1,6.054090401E0
3.775854382E0,5.541766644E0,-2.654325962E0,5.645115972E-1,6.170518389E0
3.780870736E0,5.673293591E0,-2.776554346E0,5.523474216E-1,6.340394457E0
3.785887143E0,5.863920212E0,-2.934690952E0,5.798006058E-1,6.582867155E0
3.790903497E0,6.206830978E0,-3.070966482E0,6.707746983E-1,6.957407896E0
3.795919851E0,6.544012547E0,-3.204410076E0,7.536802888E-1,7.325324438E0
3.800936257E0,6.837198734E0,-3.322820902E0,7.546450496E-1,7.639235199E0
3.805952611E0,7.122275829E0,-3.438009501E0,6.887595057E-1,7.938583751E0
3.810968965E0,7.384887695E0,-3.580636024E0,5.353794098E-1,8.224606478E0
3.815985320E0,7.596336365E0,-3.707430601E0,4.081539512E-1,8.462621194E0
3.821001674E0,7.730360508E0,-3.729605436E0,3.535020351E-1,8.590308142E0
3.826018080E0,7.868309498E0,-3.690110922E0,3.122209907E-1,8.696246024E0
3.831034434E0,7.900170803E0,-3.591133595E0,2.234896868E-1,8.680949651E0
3.836050788E0,8.000558853E0,-3.456593990E0,2.505665421E-1,8.718931561E0
3.841067143E0,8.045029640E0,-3.322027683E0,3.564213514E-1,8.711222992E0
3.846083549E0,7.964299202E0,-3.215695381E0,3.891887665E-1,8.597803583E0
3.851099903E0,7.796717167E0,-3.087135077E0,5.095006824E-1,8.401118527E0
3.856116257E0,7.592626572E0,-2.961631298E0,4.255970120E-1,8.160905037E0
3.861132611E0,7.571962357E0,-3.039880991E0,4.489524066E-1,8.171722501E0
3.866149018E0,7.146235466E0,-2.613582611E0,9.470736980E-2,7.609761158E0
3.871165372E0,6.853819847E0,-2.376584053E0,9.693455696E-2,7.254818714E0
3.876181726E0,6.574866772E0,-2.146755695E0,9.818562865E-2,6.917157906E0
3.881198080E0,6.285370827E0,-1.825631380E0,6.232728064E-2,6.545433603E0
3.886214486E0,6.021116734E0,-1.441688538E0,8.961014450E-2,6.191957892E0
3.891230840E0,5.789140224E0,-1.056956768E0,9.815382957E-2,5.885655131E0
3.896247195E0,5.431502342E0,-6.067345142E-1,-4.487016797E-2,5.465469586E0
3.901263549E0,5.067845821E0,-1.578930616E-1,-2.755876184E-1,5.077788891E0
3.906279955E0,4.626406670E0,2.944591045E-1,-6.118960381E-1,4.675977074E0
3.911296309E0,4.171944618E0,7.652132511E-1,-9.831520319E-1,4.353993699E0
3.916312663E0,3.718933582E0,1.230814219E0,-1.266075850E0,4.116833575E0
3.921329018E0,3.188551426E0,1.739343405E0,-1.286559701E0,3.853233907E0
3.926345424E0,2.571472645E0,2.241061449E0,-1.023113847E0,3.561122004E0
3.931361778E0,1.901159286E0,2.721327066E0,-5.374367237E-1,3.362865722E0
3.936378132E0,1.208857536E0,3.184817791E0,-2.982532978E-2,3.406653850E0
3.941394486E0,4.993133545E-1,3.623594046E0,1.441740394E-1,3.660673953E0
3.946410893E0,-1.724557877E-1,4.032386780E0,5.540078878E-2,4.036453070E0
3.951427247E0,-6.367855072E-1,4.398440361E0,-2.067619562E-1,4.449103719E0
3.956443601E0,-9.488859177E-1,4.678508759E0,-5.282911658E-1,4.802907478E0
3.961459955E0,-1.099355698E0,4.896441460E0,-6.753598452E-1,5.063579054E0
3.966476309E0,-1.074015617E0,4.999769688E0,-7.773460150E-1,5.172569313E0
3.971492715E0,-1.050136566E0,4.986113071E0,-8.076102734E-1,5.159103093E0
3.976509070E0,-9.585285187E-1,4.824507713E0,-8.586533070E-1,4.993189071E0
3.981525424E0,-8.422298431E-1,4.599193096E0,-9.136413336E-1,4.764102091E0
3.986541830E0,-6.344032288E-1,4.356129169E0,-1.080900431E0,4.532843979E0
3.991558184E0,-4.426202774E-1,4.112964153E0,-1.059897184E0,4.270335921E0
3.996574538E0,-2.764940262E-1,3.865200043E0,-1.019338489E0,4.006902953E0
4.001590893E0,-2.385616302E-1,3.603924274E0,-1.052236080E0,3.761965257E0
4.006607299E0,-2.401657104E-1,3.410911083E0,-9.537060261E-1,3.549866078E0
4.011623653E0,-3.313589096E-1,3.267302513E0,-8.499449492E-1,3.392266330E0
4.016640007E0,-5.261363983E-1,3.144771099E0,-7.838531733E-1,3.283417514E0
4.021656361E0,-7.526865005E-1,3.107918739E0,-8.260791302E-1,3.302741677E0
4.026672768E0,-1.101922035E0,3.101701736E0,-7.504326105E-1,3.376082780E0
4.031689122E0,-1.523381233E0,3.133367538E0,-6.956442595E-1,3.552830343E0
4.036705476E0,-1.947710991E0,3.200259686E0,-7.047069073E-1,3.812066629E0
4.041721830E0,-2.425436020E0,3.309182644E0,-5.278260708E-1,4.136668952E0
4.046738184E0,-2.901633263E0,3.500563622E0,-3.060449362E-1,4.557091700E0
4.051754590E0,-3.393144608E0,3.690560818E0,-1.442915201E-1,5.015425158E0
4.056770945E0,-3.756318092E0,3.864982128E0,-1.005169153E-1,5.390558052E0
4.061787299E0,-4.048680782E0,4.057330608E0,-1.174347401E-1,5.733021774E0
4.066803653E0,-4.301084042E0,4.212847233E0,-5.733287334E-2,6.020854823E0
4.071820059E0,-4.458737850E0,4.319366455E0,-9.264552593E-2,6.208530662E0
4.076836413E0,-4.538319588E0,4.367388248E0,-1.836757660E-1,6.301123835E0
4.081852768E0,-4.549493790E0,4.335227489E0,-2.906690836E-1,6.290991944E0
4.086869122E0,-4.547245979E0,4.165279388E0,-4.583610296E-1,6.183614899E0
4.091885528E0,-4.517172813E0,3.881421089E0,-6.853245497E-1,5.994993714E0
4.096901882E0,-4.492862225E0,3.555124760E0,-9.390244484E-1,5.805729062E0
4.101918236E0,-4.464601517E0,3.078796387E0,-1.131659627E0,5.540063845E0
4.106934590E0,-4.494428158E0,2.555465698E0,-1.306687355E0,5.332702996E0
4.111950997E0,-4.558538437E0,2.030755043E0,-1.426777244E0,5.190369161E0
4.116967351E0,-4.630888462E0,1.547810078E0,-1.275000215E0,5.046431366E0
4.121983705E0,-4.900411606E0,1.154572010E0,-8.819537163E-1,5.111253544E0
4.127000059E0,-4.921208382E0,7.823214531E-1,-8.299336433E-1,5.051644153E0
4.132016465E0,-4.768767834E0,4.322795868E-1,-8.535646200E-1,4.863803538E0
4.137032820E0,-4.599927425E0,2.441749573E-1,-8.237384558E-1,4.679476335E0
4.142049174E0,-4.482797146E0,1.136164665E-1,-8.363758326E-1,4.561568095E0
4.147065528E0,-4.490483761E0,8.195877075E-2,-8.050458431E-1,4.562812779E0
4.152081934E0,-4.562155724E0,1.473522186E-1,-7.702037096E-1,4.629059438E0
4.157098288E0,-4.792574406E0,3.053879738E-1,-7.414077520E-1,4.859188894E0
4.162114643E0,-5.121118546E0,4.821372032E-1,-7.761145830E-1,5.201986667E0
4.167130997E0,-5.607166290E0,6.416172981E-1,-7.813265324E-1,5.697583498E0
4.172147351E0,-6.092776299E0,8.075737953E-1,-7.638587952E-1,6.193349556E0
4.177163757E0,-6.652653217E0,9.292116165E-1,-6.801494360E-1,6.751579986E0
4.182180111E0,-7.177452087E0,1.022529602E0,-5.636663437E-1,7.271802046E0
4.187196465E0,-7.591367722E0,1.060693741E0,-3.804585934E-1,7.674547794E0
4.192212820E0,-7.885643482E0,1.028781891E0,-1.352913380E-1,7.953619871E0
4.197229226E0,-7.989164352E0,9.550981522E-1,1.023740768E-1,8.046703672E0
4.202245580E0,-7.988990784E0,8.700757027E-1,3.110178709E-1,8.042247048E0
4.207261934E0,-7.888115406E0,7.230148315E-1,4.641580582E-1,7.934768920E0
4.212278288E0,-7.639436245E0,5.491061211E-1,5.491548777E-1,7.678806857E0
4.217294695E0,-7.308170319E0,4.339399338E-1,5.394814014E-1,7.340892143E0
4.222311049E0,-6.777163506E0,3.749303818E-1,4.966511726E-1,6.805672660E0
4.227327403E0,-6.173505306E0,3.525342941E-1,4.150335789E-1,6.197475378E0
4.232343757E0,-5.461386204E0,3.736343384E-1,3.295067549E-1,5.484060228E0
4.237360111E0,-4.791427135E0,4.093360901E-1,2.198160887E-1,4.813901655E0
4.242376518E0,-4.172722816E0,4.860477448E-1,1.351107359E-1,4.203107544E0
4.247392872E0,-3.563866615E0,6.163272858E-1,1.038379669E-1,3.618257439E0
4.252409226E0,-3.054957867E0,7.960538864E-1,1.208862066E-1,3.159285177E0
4.257425580E0,-2.748212337E0,1.013972759E0,1.056340933E-1,2.931206299E0
4.262441986E0,-2.669382572E0,1.215649605E0,5.645740032E-2,2.933699834E0
4.267458340E0,-2.793973446E0,1.384830475E0,-1.628375053E-1,3.122588528E0
4.272474695E0,-3.014314175E0,1.528973103E0,-5.056351423E-1,3.417530627E0
4.277491049E0,-3.273153305E0,1.629188061E0,-8.176246881E-1,3.746504561E0
4.282507455E0,-3.552038670E0,1.697286129E0,-1.006499767E0,4.063348459E0
4.287523809E0,-3.887628555E0,1.634891987E0,-1.042419195E0,4.344325652E0
4.292540163E0,-4.197106838E0,1.491815090E0,-9.553459883E-1,4.555645293E0
4.297556518E0,-4.409613132E0,1.305901051E0,-7.823036909E-1,4.664982808E0
4.302572872E0,-4.382455826E0,1.136497974E0,-5.559304953E-1,4.561425811E0
4.307589278E0,-4.166538239E0,9.951696396E-1,-3.333469629E-1,4.296687527E0
4.312605632E0,-3.820051193E0,8.669466972E-1,-1.093873978E-1,3.918718323E0
4.317621986E0,-3.422321796E0,7.275934219E-1,1.902748346E-1,3.503981047E0
4.322638340E0,-2.952081680E0,5.936274529E-1,5.682048798E-1,3.064316659E0
4.327654747E0,-2.507493496E0,4.625296593E-1,8.999849558E-1,2.703965650E0
4.332671101E0,-2.110212326E0,3.866944313E-1,1.138158560E0,2.428566151E0
4.337687455E0,-1.824652672E0,3.612446785E-1,1.191721320E0,2.209084606E0
4.342703809E0,-1.631231308E0,4.628744125E-1,1.122731328E0,2.033640562E0
4.347720215E0,-1.536615372E0,6.343750954E-1,8.137095571E-1,1.850875956E0
4.352736570E0,-1.578463078E0,8.905005455E-1,3.985069990E-1,1.855625161E0
4.357752924E0,-1.758304119E0,1.152727604E0,-2.323113680E-1,2.115273712E0
4.362769278E0,-1.963930130E0,1.416174889E0,-1.055393457E0,2.641292907E0
4.367785684E0,-2.274531841E0,1.661543369E0,-1.519527793E0,3.200497802E0
4.372802038E0,-2.376224518E0,1.918033123E0,-2.216907024E0,3.773588580E0
4.377818393E0,-2.163953781E0,2.163997173E0,-2.881102562E0,4.203133558E0
4.382834747E0,-1.759709835E0,2.492688656E0,-3.371434689E0,4.547158156E0
4.387851101E0,-1.261121273E0,2.801671505E0,-3.544426441E0,4.690708783E0
4.392867507E0,-6.697444916E-1,3.032280922E0,-3.368377686E0,4.581403006E0
4.397883861E0,-2.047657967E-1,3.158837318E0,-3.099166632E0,4.430013098E0
4.402900215E0,-3.306484222E-2,3.231967926E0,-3.090678692E0,4.472024680E0
4.407916570E0,-1.259212494E-1,3.144149780E0,-2.863790274E0,4.254741911E0
4.412932976E0,-4.526090622E-1,2.914508343E0,-2.515074492E0,3.876185437E0
4.417949330E0,-1.086108208E0,2.489433765E0,-2.158514023E0,3.469307467E0
4.422965684E0,-2.082197189E0,2.152932644E0,-1.606364012E0,3.398686429E0
4.427982038E0,-3.013146400E0,1.913783073E0,-1.098821282E0,3.734839366E0
4.432998445E0,-3.724130630E0,1.754578590E0,-7.829653025E-1,4.190552428E0
4.438014799E0,-4.117463112E0,1.701574326E0,-7.291800976E-1,4.514483501E0
4.443031153E0,-4.191271782E0,1.699429512E0,-7.767895460E-1,4.588923819E0
4.448047507E0,-3.938428879E0,1.796380997E0,-8.758066297E-1,4.416474156E0
4.453063913E0,-3.440565109E0,1.963572502E0,-1.063162088E0,4.101636121E0
4.458080268E0,-2.723978996E0,2.177384377E0,-1.321006775E0,3.729091470E0
4.463096622E0,-2.025793076E0,2.325176239E0,-1.592246294E0,3.470667139E0
4.468112976E0,-1.465312958E0,2.438569546E0,-1.836658359E0,3.386307343E0
4.473129330E0,-9.086351395E-1,2.610791683E0,-2.143981457E0,3.498357831E0
4.478145736E0,-5.208702087E-1,2.705366611E0,-2.370062351E0,3.634213784E0
4.483162090E0,-2.781572342E-1,2.733956814E0,-2.540366650E0,3.742372780E0
4.488178445E0,-8.476829529E-2,2.775421619E0,-2.555970430E0,3.774007905E0
4.493194799E0,1.859970093E-1,2.834352493E0,-2.452086687E0,3.752449609E0
4.498211205E0,5.054721832E-1,2.788950920E0,-2.095273256E0,3.524758060E0
4.503227559E0,9.284658432E-1,2.612727642E0,-1.622213006E0,3.212470948E0
4.508243913E0,1.445558071E0,2.323156595E0,-1.150152326E0,2.968087781E0
4.513260268E0,1.487626553E0,2.422705889E0,-1.192824125E0,3.083077355E0
4.518276674E0,2.492427826E0,1.643864155E0,-4.109372795E-1,3.013860527E0
4.523293028E0,2.859278679E0,1.265077353E0,-2.497083545E-1,3.136598402E0
4.528309382E0,3.246696949E0,1.080760479E0,-5.276905000E-2,3.422260783E0
4.533325736E0,3.501685619E0,9.546701908E-1,1.429437399E-1,3.632303713E0
4.538342143E0,3.705707550E0,8.869531155E-1,3.095607758E-1,3.822928478E0
4.543358497E0,3.908812523E0,8.485097885E-1,2.710498571E-1,4.009021355E0
4.548374851E0,4.043879986E0,9.825580120E-1,2.517774105E-1,4.169145890E0
4.553391205E0,4.177725792E0,1.156978130E0,2.584343255E-1,4.342669627E0
4.558407611E0,4.243084431E0,1.282435656E0,2.957916856E-1,4.442510486E0
4.563423965E0,4.273241520E0,1.346198559E0,4.525030255E-1,4.503065915E0
4.568440320E0,4.277697086E0,1.407637835E0,7.030974627E-1,4.557903320E0
4.573456674E0,4.294625282E0,1.370418310E0,1.041525841E0,4.626729810E0
4.578473080E0,4.247447491E0,1.303501844E0,1.257826805E0,4.617581133E0
4.583489434E0,4.248493195E0,1.203642368E0,1.390330315E0,4.629413328E0
4.588505788E0,4.223517418E0,1.079678059E0,1.475049734E0,4.602127313E0
4.593522143E0,4.275470734E0,9.863510132E-1,1.495985985E0,4.635786059E0
4.598538497E0,4.526339054E0,8.351347446E-1,1.465218067E0,4.830327034E0
4.603554903E0,4.808551311E0,6.330024004E-1,1.430153728E0,5.056500513E0
4.608571257E0,5.134047508E0,4.106786251E-1,1.404463649E0,5.338503432E0
4.613587611E0,5.443024158E0,1.603654623E-1,1.402472019E0,5.623091395E0
4.618603965E0,5.752328873E0,-6.807374954E-2,1.390738964E0,5.918452193E0
4.623620372E0,5.971144676E0,-2.466007471E-1,1.378575802E0,6.133176332E0
4.628636726E0,6.243215084E0,-3.752946854E-1,1.356623530E0,6.399922507E0
4.633653080E0,6.523111343E0,-5.144575834E-1,1.377143145E0,6.686716043E0
4.638669434E0,6.755879879E0,-6.909976602E-1,1.389420748E0,6.931802126E0
4.643685840E0,6.991929531E0,-8.379705548E-1,1.455541968E0,7.190818844E0
4.648702195E0,7.291122437E0,-9.719961882E-1,1.562295318E0,7.519708082E0
4.653718549E0,7.593729973E0,-1.143238544E0,1.656995296E0,7.856039885E0
4.658734903E0,7.887901306E0,-1.363577366E0,1.694309235E0,8.182237715E0
4.663751257E0,8.240649223E0,-1.556490183E0,1.635255098E0,8.544297546E0
4.668767663E0,8.455872536E0,-1.729587317E0,1.455925465E0,8.752883615E0
4.673784018E0,8.634257317E0,-1.899607301E0,1.242805243E0,8.927680112E0
4.678800372E0,8.637188911E0,-2.071614742E0,1.057807565E0,8.944919048E0
4.683816726E0,8.627552986E0,-2.053938627E0,1.056154490E0,8.931337902E0
4.688833132E0,8.543267250E0,-2.384672642E0,6.739145517E-1,8.895405541E0
4.693849486E0,8.554265976E0,-2.577674866E0,5.481183529E-1,8.950994796E0
4.698865840E0,8.538506508E0,-2.762060165E0,4.633354545E-1,8.986086439E0
4.703882195E0,8.484077454E0,-2.909016609E0,3.765415847E-1,8.976844180E0
4.708898601E0,8.431711197E0,-3.051787853E0,3.432596624E-1,8.973571753E0
4.713914955E0,8.367117882E0,-3.134853840E0,4.120168388E-1,8.944592116E0
4.718931309E0,8.252043724E0,-3.155687094E0,4.440262914E-1,8.846001696E0
4.723947663E0,8.134367943E0,-3.147458553E0,5.659955144E-1,8.740411209E0
4.728964018E0,7.992519379E0,-3.105723381E0,6.465036869E-1,8.599061039E0
4.733980424E0,7.706881523E0,-3.054651260E0,7.521803379E-1,8.324223231E0
4.738996778E0,7.416263103E0,-2.951325893E0,7.733221054E-1,8.019308575E0
4.744013132E0,7.060814857E0,-2.865411997E0,7.247920632E-1,7.654476853E0
4.749029486E0,6.635715485E0,-2.770815372E0,8.193367720E-1,7.237503062E0
4.754045893E0,6.250952721E0,-2.682099819E0,9.595744610E-1,6.869414276E0
4.759062247E0,5.868122101E0,-2.616139174E0,1.029244423E0,6.506795313E0
4.764078601E0,5.503820896E0,-2.489040136E0,8.726795912E-1,6.103190553E0
4.769094955E0,5.361252308E0,-2.278190613E0,4.824678898E-1,5.845165014E0
4.774111309E0,5.459170818E0,-1.990505457E0,7.381033897E-2,5.811205208E0
4.779127715E0,5.601181030E0,-1.682711363E0,-3.389230967E-1,5.858294575E0
4.784144070E0,5.818223953E0,-1.349630594E0,-5.821714401E-1,6.001012939E0
4.789160424E0,5.959477425E0,-1.034200668E0,-6.059433222E-1,6.078824681E0
4.794176778E0,6.041723728E0,-7.382383347E-1,-5.296618342E-1,6.109661456E0
4.799193184E0,6.019569397E0,-4.279688597E-1,-4.736827016E-1,6.053325398E0
4.804209538E0,5.874062538E0,-1.913392544E-1,-3.255059123E-1,5.886185141E0
4.809225893E0,5.595793247E0,2.215266228E-2,-1.226981133E-1,5.597182115E0
4.814242247E0,5.247141361E0,2.009828091E-1,-1.970263012E-2,5.251026066E0
4.819258653E0,4.854467392E0,4.170134068E-1,3.044677526E-2,4.872440954E0
4.824275007E0,4.405867100E0,6.202509403E-1,6.271835417E-2,4.449753895E0
4.829291361E0,3.965815067E0,8.008692265E-1,9.187804163E-2,4.046915151E0
4.834307715E0,3.570085049E0,1.023546457E0,1.087766737E-1,3.715506287E0
4.839324070E0,3.156321049E0,1.221142530E0,7.645125687E-2,3.385173029E0
4.844340476E0,2.757760525E0,1.431321621E0,-9.478831291E-2,3.108522079E0
4.849356830E0,2.405222416E0,1.588880539E0,-3.973233700E-1,2.909897266E0
4.854373184E0,2.124858379E0,1.767975807E0,-9.248461723E-1,2.914807374E0
4.859389538E0,1.969178200E0,1.983057737E0,-1.290990353E0,3.078447151E0
4.864405945E0,1.966926098E0,2.256502390E0,-1.533681154E0,3.363447516E0
4.869422299E0,1.986663818E0,2.620256662E0,-1.416008949E0,3.580175896E0
4.874438653E0,1.961739063E0,3.034536123E0,-1.110243797E0,3.780141654E0
4.879455007E0,1.827784061E0,3.403890848E0,-7.819545269E-1,3.941918361E0
4.884471361E0,1.594750404E0,3.726385117E0,-6.854568720E-1,4.110842494E0
4.889487768E0,1.289360046E0,4.043006897E0,-8.076216578E-1,4.319792453E0
4.894504122E0,9.812822342E-1,4.377842903E0,-1.237505198E0,4.654013582E0
4.899520476E0,6.419334412E-1,4.706995964E0,-1.682774663E0,5.039803579E0
4.904536830E0,1.518373489E-1,5.025548458E0,-2.040607214E0,5.426165284E0
4.909553236E0,-5.487689972E-1,5.301984310E0,-2.322493553E0,5.814306609E0
4.914569590E0,-1.414695740E0,5.480408669E0,-2.343374729E0,6.125981418E0
4.919585945E0,-2.453567505E0,5.511974335E0,-2.143437624E0,6.402825893E0
4.924602299E0,-3.575078964E0,5.426765919E0,-1.683666706E0,6.713099993E0
4.929618653E0,-4.552615166E0,5.149956226E0,-1.109627604E0,6.962731318E0
4.934635059E0,-5.295807838E0,4.796238899E0,-5.221321583E-1,7.163945158E0
4.939651413E0,-5.771287918E0,4.440385342E0,-5.556881428E-2,7.282024039E0
4.944667768E0,-5.972076416E0,4.099703789E0,3.168016076E-1,7.250767624E0
4.949684122E0,-5.979395866E0,3.751246929E0,6.456446052E-1,7.088151057E0
4.954700528E0,-5.881493568E0,3.434261799E0,8.453779221E-1,6.863001131E0
4.959716882E0,-5.783031464E0,3.157069683E0,8.447610140E-1,6.642602130E0
4.964733236E0,-5.587763786E0,2.899116039E0,7.906104326E-1,6.344528572E0
4.969749590E0,-5.364460945E0,2.757123470E0,8.345961571E-1,6.088983643E0
4.974765997E0,-5.122130871E0,2.669571400E0,9.126207829E-1,5.847710048E0
4.979782351E0,-4.886920452E0,2.658097267E0,8.459730148E-1,5.627001238E0
4.984798705E0,-4.603359222E0,2.624972820E0,6.680986881E-1,5.341137921E0
4.989815059E0,-4.362641335E0,2.538721085E0,4.514626861E-1,5.067697970E0
4.994831413E0,-4.253310680E0,2.470814228E0,4.206734300E-1,4.936855358E0
4.999847820E0,-4.151620865E0,2.391590118E0,3.893514276E-1,4.807000482E0
5.004864174E0,-4.237435341E0,2.331166267E0,5.736109018E-1,4.870238588E0
5.009880528E0,-4.156239033E0,2.176930428E0,4.297505617E-1,4.711479017E0
5.014896882E0,-3.903617382E0,1.959513664E0,2.890973091E-1,4.377385032E0
5.019913288E0,-3.675272942E0,1.724644661E0,1.883395910E-1,4.064173004E0
5.024929643E0,-3.477713108E0,1.549120903E0,2.806067467E-2,3.807236719E0
5.029945997E0,-3.321709633E0,1.392942429E0,-2.384819984E-1,3.609836168E0
5.034962351E0,-3.172842026E0,1.306998253E0,-4.366005659E-1,3.459160448E0
5.039978705E0,-3.068671227E0,1.236712933E0,-6.139581203E-1,3.364988343E0
5.044995111E0,-3.092337608E0,1.220656395E0,-7.916736603E-1,3.417499247E0
5.050011465E0,-3.356069088E0,1.244465351E0,-9.206378460E-1,3.695871721E0
5.055027820E0,-3.656169415E0,1.329889297E0,-1.004204512E0,4.018035220E0
5.060044174E0,-3.944219112E0,1.532440662E0,-1.043676853E0,4.358268023E0
5.065060580E0,-4.291675091E0,1.787729740E0,-1.047633529E0,4.765709676E0
5.070076934E0,-4.669582844E0,2.033706665E0,-9.841911793E-1,5.187446290E0
5.075093288E0,-5.133228779E0,2.191081047E0,-9.056885242E-1,5.654303277E0
5.080109643E0,-5.694711208E0,2.183099270E0,-8.120467663E-1,6.152648057E0
5.085126049E0,-6.162702560E0,2.200933933E0,-7.253625393E-1,6.584008190E0
5.090142403E0,-6.601818085E0,2.115105152E0,-6.635165215E-1,6.964045233E0
5.095158757E0,-7.038653374E0,1.980398178E0,-6.361705065E-1,7.339572956E0
5.100175111E0,-7.401420593E0,1.796841145E0,-5.453357697E-1,7.635905709E0
5.105191465E0,-7.716609001E0,1.552347183E0,-3.937096596E-1,7.881043303E0
5.110207872E0,-7.933810711E0,1.316418171E0,-2.487659454E-1,8.046129112E0
5.115224226E0,-8.131921768E0,1.017445564E0,-1.079338789E-1,8.196035434E0
5.120240580E0,-8.188489914E0,7.993912697E-1,2.269387245E-3,8.227417494E0
5.125256934E0,-8.083967209E0,6.172418594E-1,7.938396931E-2,8.107885986E0
5.130273340E0,-7.849551678E0,5.115489960E-1,5.342471600E-2,7.866384056E0
5.135289695E0,-7.660092354E0,3.672041893E-1,-1.072694063E-1,7.669638877E0
5.140306049E0,-7.443833351E0,2.558169365E-1,-2.647780180E-1,7.452932622E0
5.145322403E0,-7.059734821E0,1.868767738E-1,-3.981668949E-1,7.073423185E0
5.150338757E0,-6.551424026E0,1.720614433E-1,-5.338342190E-1,6.575389029E0
5.155355163E0,-5.991057873E0,1.944165230E-1,-6.576701403E-1,6.030182604E0
5.160371518E0,-5.357292652E0,2.803211212E-1,-8.125380278E-1,5.425807086E0
5.165387872E0,-4.717716217E0,4.319281578E-1,-9.737939835E-1,4.836494904E0
5.170404226E0,-4.188148975E0,6.247534752E-1,-1.077883720E0,4.369524237E0
5.175420632E0,-3.877403736E0,8.171806335E-1,-1.063948393E0,4.102929454E0
5.180436986E0,-3.692440510E0,1.037346363E0,-1.107476711E0,3.992080793E0
5.185453340E0,-3.420556068E0,1.294559956E0,-1.206245542E0,3.851119007E0
5.190469695E0,-3.112889290E0,1.612105846E0,-1.232694626E0,3.715979148E0
5.195486049E0,-2.813332081E0,1.879428387E0,-1.178288817E0,3.582660045E0
5.200502455E0,-2.561114311E0,2.019206047E0,-1.047017336E0,3.425309457E0
5.205518809E0,-2.330747128E0,2.085852623E0,-8.711484671E-1,3.246854322E0
5.210535163E0,-2.120158195E0,2.074300766E0,-6.334103346E-1,3.032985838E0
5.215551518E0,-1.879095554E0,2.087506771E0,-4.501943588E-1,2.844531522E0
5.220567872E0,-1.559573174E0,2.108919621E0,-2.250951529E-1,2.632580156E0
5.225584278E0,-1.259506226E0,2.088628292E0,4.687786102E-3,2.439005135E0
5.230600632E0,-1.096068859E0,2.033621788E0,2.411410809E-1,2.322742677E0
5.235616986E0,-9.614977837E-1,1.907944202E0,4.124858975E-1,2.175976490E0
5.240633393E0,-9.698982239E-1,1.778967857E0,4.716587663E-1,2.080358429E0
5.245649747E0,-8.625898361E-1,1.701912403E0,3.469349742E-1,1.939311973E0
5.250666101E0,-8.902792931E-1,1.729950905E0,3.809577823E-1,1.982537814E0
5.255682455E0,-8.461742401E-1,1.729951859E0,3.425366282E-1,1.956035690E0
5.260698809E0,-9.230799675E-1,1.729150295E0,-2.810251713E-2,1.960313016E0
5.265715215E0,-9.625949860E-1,1.613138199E0,-3.874524832E-1,1.918051976E0
5.270731570E0,-1.023768902E0,1.521649837E0,-8.199479580E-1,2.008938935E0
5.275747924E0,-8.758692741E-1,1.458497524E0,-1.189876556E0,2.076094466E0
5.280764278E0,-5.298714638E-1,1.357973099E0,-1.361467957E0,1.994605150E0
5.285780632E0,-2.603039742E-1,1.214233875E0,-1.618974090E0,2.040391915E0
5.290797038E0,-5.032539368E-2,1.099404335E0,-1.228581190E0,1.649434533E0
5.295813393E0,-3.987150192E-1,1.007368565E0,-5.815935731E-1,1.229640669E0
5.300829747E0,-1.306171417E0,9.365053177E-1,9.647077322E-2,1.610103286E0
5.305846101E0,-2.289827347E0,1.000638962E0,8.760881424E-2,2.500452542E0
5.310862507E0,-3.094727516E0,1.308884621E0,-1.873672009E-2,3.360188747E0
5.315878861E0,-3.755283356E0,1.709760189E0,-4.320198298E-2,4.126414836E0
5.320895215E0,-4.255706787E0,2.041973114E0,-1.668521166E-1,4.723191091E0
5.325911570E0,-4.517583847E0,2.271733761E0,-2.839531898E-1,5.064579697E0
5.330927976E0,-4.459895134E0,2.406329632E0,-4.327617288E-1,5.086095714E0
5.335944330E0,-4.396356583E0,2.491142273E0,-4.697006345E-1,5.074875340E0
5.340960684E0,-3.633179665E0,2.674970150E0,-7.064257264E-1,4.566672430E0
5.345977038E0,-3.120578766E0,2.842759609E0,-8.081558943E-1,4.297954162E0
5.350993393E0,-2.595073700E0,2.997207642E0,-9.156637192E-1,4.068918923E0
5.356009799E0,-2.240719795E0,3.057115078E0,-9.840414524E-1,3.916007582E0
5.361026153E0,-1.918302536E0,3.140416622E0,-1.125172496E0,3.848131277E0
5.366042507E0,-1.596614838E0,3.182786942E0,-1.173524618E0,3.749196138E0
5.371058861E0,-1.304242134E0,3.148652077E0,-1.280381918E0,3.640664129E0
5.376075268E0,-1.101251602E0,3.071040630E0,-1.386153698E0,3.544780348E0
5.381091622E0,-9.159946442E-1,2.949614048E0,-1.501396656E0,3.434160908E0
5.386107976E0,-6.744518280E-1,2.872686386E0,-1.430386782E0,3.279210071E0
5.391124330E0,-3.170728683E-1,2.780169010E0,-1.201870918E0,3.045384809E0
5.396140736E0,2.440834045E-2,2.648067951E0,-9.615091085E-1,2.817331966E0
5.401157090E0,3.620185852E-1,2.490960598E0,-7.637075782E-1,2.630435595E0
5.406173445E0,7.677612305E-1,2.371675730E0,-7.309924960E-1,2.597816988E0
5.411189799E0,1.258324623E0,2.249680042E0,-8.663625717E-1,2.719379572E0
5.416206153E0,1.721059322E0,2.139094830E0,-9.154074192E-1,2.894087529E0
5.421222559E0,2.117742062E0,2.040010929E0,-9.718930125E-1,3.096942372E0
5.426238913E0,2.503343582E0,1.947517633E0,-1.065769553E0,3.345955583E0
5.431255268E0,2.873013496E0,1.861481905E0,-1.013007641E0,3.570084861E0
5.436271622E0,3.217200756E0,1.743743181E0,-1.061914444E0,3.810338997E0
5.441288028E0,3.583584309E0,1.589138269E0,-1.025778174E0,4.052117693E0
5.446304382E0,3.842778206E0,1.394628763E0,-1.072744727E0,4.226430524E0
5.451320736E0,3.997208595E0,1.164729834E0,-1.097916603E0,4.305774379E0
5.456337090E0,4.274248600E0,1.014530420E0,-1.053692341E0,4.517603415E0
5.461353445E0,4.661780357E0,8.865530491E-1,-1.034173727E0,4.856715733E0
5.466369851E0,5.056911945E0,7.380061150E-1,-9.794890881E-1,5.203499815E0
5.471386205E0,5.509700298E0,6.377558708E-1,-8.775667548E-1,5.615483357E0
5.476402559E0,5.864475250E0,5.060911179E-1,-7.142091990E-1,5.929442888E0
5.481418913E0,6.106854439E0,4.091262817E-1,-5.365833044E-1,6.144019620E0
5.486435320E0,6.325310707E0,3.218982220E-1,-3.058243692E-1,6.340875535E0
5.491451674E0,6.349985600E0,2.121074200E-1,-5.007433891E-2,6.353724428E0
5.496468028E0,6.274297714E0,9.523379803E-2,2.529692054E-1,6.280117411E0
5.501484382E0,6.167734623E0,-5.763649940E-3,5.172047615E-1,6.189384813E0
5.506500788E0,6.162028313E0,-6.955730915E-2,7.620535493E-1,6.209360415E0
5.511517143E0,6.185471535E0,-2.256586552E-1,9.542691708E-1,6.262715831E0
5.516533497E0,6.269279480E0,-4.715632200E-1,1.076296687E0,6.378452134E0
5.521549851E0,6.310669899E0,-7.596046925E-1,1.179981351E0,6.464820945E0
5.526566205E0,6.448515892E0,-1.001375556E0,1.296001792E0,6.653249646E0
5.531582611E0,6.730671883E0,-1.175329089E0,1.340413690E0,6.962761759E0
5.536598965E0,7.121219635E0,-1.259973168E0,1.231630683E0,7.335953627E0
5.541615320E0,7.488625526E0,-1.310420990E0,1.148931980E0,7.688742429E0
5.546631674E0,7.833023548E0,-1.317209244E0,1.049355030E0,8.012018727E0
5.551648080E0,8.104319572E0,-1.301908970E0,9.686725140E-1,8.265185366E0
5.556664434E0,8.302720070E0,-1.297667384E0,9.020130634E-1,8.451788495E0
5.561680788E0,8.294534683E0,-1.268230200E0,8.881109953E-1,8.437799156E0
5.566697143E0,8.737689972E0,-1.571860313E0,7.911080122E-1,8.913126431E0
5.571713549E0,8.933492661E0,-1.751152754E0,7.571003437E-1,9.134934483E0
5.576729903E0,9.095142365E0,-1.954347730E0,7.054873705E-1,9.329458833E0
5.581746257E0,9.194049835E0,-2.168926001E0,6.695344448E-1,9.470114505E0
5.586762611E0,9.302115440E0,-2.387515783E0,6.168984175E-1,9.623416594E0
5.591778965E0,9.299818993E0,-2.588355064E0,6.530728340E-1,9.675366627E0
5.596795372E0,9.242322922E0,-2.754720449E0,6.971612573E-1,9.669283922E0
5.601811726E0,9.074701309E0,-2.877286911E0,7.878214121E-1,9.552468079E0
5.606828080E0,8.892796516E0,-2.943670511E0,8.920640945E-1,9.409718610E0
5.611844434E0,8.694211960E0,-2.965986013E0,9.765095711E-1,9.237963281E0
5.616860788E0,8.421533585E0,-2.970808029E0,1.029307842E0,8.989293793E0
5.621877195E0,8.050857544E0,-2.975072622E0,1.083441377E0,8.651081407E0
5.626893549E0,7.737634659E0,-2.928832293E0,1.061952710E0,8.341270423E0
5.631909903E0,7.311892986E0,-2.868200779E0,1.059355259E0,7.925439314E0
5.636926257E0,6.926714897E0,-2.743241072E0,9.967224002E-1,7.516528879E0
5.641942663E0,6.510207653E0,-2.652133465E0,9.738706946E-1,7.096833078E0
5.646959018E0,6.157959461E0,-2.554513931E0,8.742761612E-1,6.723865329E0
5.651975372E0,5.793303013E0,-2.454793930E0,6.664167643E-1,6.327122912E0
5.656991726E0,5.461624146E0,-2.299915314E0,3.233741522E-1,5.934940573E0
5.662008080E0,5.301563740E0,-2.070266247E0,1.067548245E-1,5.692449122E0
5.667024486E0,5.078485966E0,-1.792257905E0,4.564861953E-2,5.385656125E0
5.672040840E0,4.878517151E0,-1.496492505E0,7.043011487E-2,5.103369457E0
5.677057195E0,4.754050732E0,-1.188258648E0,1.454236507E-1,4.902459078E0
5.682073549E0,4.556648731E0,-8.529969454E-1,2.460267097E-1,4.642324912E0
5.687089903E0,4.501458645E0,-5.865088701E-1,2.854139507E-1,4.548470480E0
5.692106309E0,4.396861553E0,-3.386976719E-1,3.727334738E-1,4.425611582E0
5.697122663E0,4.331328392E0,-1.283701658E-1,4.162896276E-1,4.353180630E0
5.702139018E0,4.350182056E0,4.231345654E-2,4.512189627E-1,4.373725289E0
5.707155372E0,4.295461178E0,1.927225590E-1,4.479706585E-1,4.323055219E0
5.712171778E0,4.239004612E0,3.280525208E-1,4.106422365E-1,4.271464105E0
5.717188132E0,4.149735451E0,4.271657467E-1,4.184222817E-1,4.192594912E0
5.722204486E0,4.030166149E0,5.169713497E-1,4.086918831E-1,4.083690441E0
5.727220840E0,3.861305714E0,5.646259785E-1,3.004385233E-1,3.913917170E0
5.732237195E0,3.674396992E0,6.520557404E-1,1.972858310E-1,3.737016409E0
5.737253601E0,3.457599163E0,8.084671497E-1,4.766708612E-2,3.551180544E0
5.742269955E0,3.244567871E0,1.039153337E0,-1.622051299E-1,3.410772762E0
5.747286309E0,2.987749100E0,1.318640471E0,-4.343269765E-1,3.294555705E0
5.752302663E0,2.759127140E0,1.637820005E0,-8.283926249E-1,3.313830304E0
5.757319070E0,2.518253803E0,2.021288872E0,-1.273658752E0,3.471227094E0
5.762335424E0,2.263166428E0,2.472324848E0,-1.593326807E0,3.711199637E0
5.767351778E0,1.912756920E0,2.967231989E0,-1.990158081E0,4.052632959E0
5.772368132E0,1.481580257E0,3.458212614E0,-2.291169643E0,4.404971382E0
5.777384486E0,9.267373085E-1,3.926135540E0,-2.445534229E0,4.717416664E0
5.782400893E0,3.055229187E-1,4.387051582E0,-2.452759027E0,5.035433714E0
5.787417247E0,-4.588537216E-1,4.792123318E0,-2.353881598E0,5.358707979E0
5.792433601E0,-1.309346199E0,5.059016228E0,-2.109941006E0,5.635590804E0
5.797449955E0,-2.234663963E0,5.327281475E0,-1.773687482E0,6.043146385E0
5.802466309E0,-3.242656708E0,5.473292828E0,-1.413060784E0,6.516785840E0
5.807482715E0,-4.288816452E0,5.523760796E0,-1.117572784E0,7.082008812E0
5.812499070E0,-5.311837196E0,5.489167213E0,-6.796323061E-1,7.668668148E0
5.817515424E0,-6.150094986E0,5.337078094E0,-3.079844713E-1,8.148799013E0
5.822531778E0,-6.722893715E0,5.096084595E0,7.762449980E-2,8.436433112E0
5.827548132E0,-6.968556404E0,4.797479153E0,3.656488061E-1,8.468192465E0
5.832564538E0,-6.911087036E0,4.396815300E0,5.758887529E-1,8.211379705E0
5.837580893E0,-6.607774734E0,3.952897072E0,7.553334236E-1,7.736834675E0
5.842597247E0,-5.921753883E0,3.484331131E0,8.336666226E-1,6.921179995E0
5.847613601E0,-5.063068390E0,2.997725487E0,7.441236377E-1,5.930829588E0
5.852630007E0,-4.124175072E0,2.523734570E0,5.877311826E-1,4.870675943E0
5.857646361E0,-3.348285675E0,2.056504250E0,4.343020320E-1,3.953333397E0
5.862662715E0,-2.638613224E0,1.621385574E0,3.345783353E-1,3.114982117E0
5.867679070E0,-2.001605988E0,1.264719963E0,2.057765722E-1,2.376612529E0
5.872695424E0,-1.594225883E0,9.466843605E-1,8.676683903E-2,1.856150837E0
5.877711830E0,-1.161861420E0,7.208967209E-1,4.311490059E-2,1.368017886E0
5.882728184E0,-8.592042923E-1,6.238365173E-1,-2.509987354E-2,1.062089459E0
5.887744538E0,-7.239742279E-1,6.412091255E-1,-9.789109230E-2,9.720444904E-1
5.892760893E0,-8.060812950E-1,7.776713371E-1,-1.570596695E-1,1.131020558E0
5.897777247E0,-1.062418938E0,9.800667763E-1,-1.226269007E-1,1.450621330E0
5.902793653E0,-1.533691883E0,1.257213593E0,-1.453495026E-1,1.988447457E0
5.907810007E0,-2.104951382E0,1.596503258E0,-2.067295313E-1,2.649977372E0
5.912826361E0,-2.731193066E0,1.992139816E0,-2.806798220E-1,3.392170068E0
5.917842715E0,-3.552257061E0,2.447309494E0,-3.097221851E-1,4.324786910E0
5.922859070E0,-4.522736549E0,2.987474918E0,-3.672556877E-1,5.432773603E0
5.927875476E0,-5.425203800E0,3.475605965E0,-6.261439323E-1,6.473386233E0
5.932891830E0,-6.286636829E0,3.932496071E0,-8.762321472E-1,7.466867532E0
5.937908184E0,-7.154366493E0,4.258157730E0,-1.041621566E0,8.390580591E0
5.942924538E0,-7.733217716E0,4.460723877E0,-1.125717163E0,8.998219429E0
5.947940945E0,-7.969824791E0,4.476541996E0,-1.198978066E0,9.219277837E0
5.952957299E0,-8.322702408E0,4.206120968E0,-1.180614471E0,9.399610603E0
5.957973653E0,-8.824907303E0,3.683384895E0,-1.006098151E0,9.615536734E0
5.962990007E0,-9.411427498E0,2.915898323E0,-7.281736135E-1,9.879659275E0
5.968006361E0,-1.002673340E1,2.122074127E0,-4.055455923E-1,1.025685373E1
5.973022768E0,-1.041408443E1,1.386407375E0,-8.784770966E-2,1.050633129E1
5.978039122E0,-1.063530540E1,6.926040649E-1,3.417241573E-2,1.065788859E1
5.983055476E0,-1.068255424E1,1.012330055E-1,1.816538572E-1,1.068457821E1
5.988071830E0,-1.052877426E1,-5.114374161E-1,3.211771250E-1,1.054608033E1
5.993088184E0,-1.011815643E1,-1.015558720E0,4.116302729E-1,1.017732227E1
5.998104590E0,-9.529045105E0,-1.413047791E0,4.551589489E-1,9.643991619E0
6.003120945E0,-8.751396179E0,-1.653404713E0,3.674391508E-1,8.913792333E0
6.008137299E0,-7.933579445E0,-1.765627861E0,2.122051716E-1,8.130446211E0
6.013153653E0,-7.116653919E0,-1.731164455E0,-3.754484653E-2,7.324281739E0
6.018170007E0,-6.420951843E0,-1.579591274E0,-3.010643721E-1,6.619242474E0
6.023186413E0,-5.703845978E0,-1.354761600E0,-4.945263863E-1,5.883348900E0
6.028202768E0,-4.918511391E0,-1.086102962E0,-6.227062941E-1,5.075346005E0
6.033219122E0,-4.121214867E0,-7.456879616E-1,-6.539467573E-1,4.238880616E0
6.038235476E0,-3.318158627E0,-3.846845627E-1,-5.921214819E-1,3.392457330E0
6.043251830E0,-2.584962368E0,8.005619049E-3,-4.378619194E-1,2.621796635E0
6.048268236E0,-2.005178928E0,4.117817879E-1,-1.496405602E-1,2.052486071E0
6.053284590E0,-1.738364220E0,8.871746063E-1,2.761663198E-1,1.971105471E0
6.058300945E0,-1.662445545E0,1.416271687E0,3.051164150E-1,2.205140972E0
6.063317299E0,-1.430644512E0,1.929036140E0,1.056393385E-1,2.403972508E0
6.068333653E0,-1.225304604E0,2.470237255E0,-7.894408703E-2,2.758564053E0
6.073350059E0,-1.113682270E0,2.931706429E0,-3.161232471E-1,3.152003282E0
6.078366413E0,-1.125070095E0,3.262516975E0,-5.387812853E-1,3.492862008E0
6.083382768E0,-1.255209923E0,3.373715401E0,-7.699890137E-1,3.681085524E0
6.088399122E0,-1.430275917E0,3.336945534E0,-9.152990580E-1,3.744151047E0
6.093415528E0,-1.695566177E0,3.114395142E0,-9.541245699E-1,3.672159508E0
6.098431882E0,-1.904719353E0,2.790634155E0,-8.704283237E-1,3.489017092E0
6.103448236E0,-2.004181862E0,2.443421841E0,-7.857254744E-1,3.256442806E0
6.108464590E0,-2.003207684E0,2.073689461E0,-7.139531374E-1,2.970312793E0
6.113480945E0,-2.137199879E0,1.807308674E0,-4.136711359E-1,2.829330623E0
6.118497351E0,-2.052609921E0,1.607750893E0,-4.077131748E-1,2.638996107E0
6.123513705E0,-1.903703213E0,1.445334911E0,-4.765591621E-1,2.437250000E0
6.128530059E0,-1.813610077E0,1.326146126E0,-6.210927963E-1,2.331008649E0
6.133546413E0,-1.824797153E0,1.243463516E0,-8.039594889E-1,2.349986602E0
6.138562768E0,-1.767172337E0,1.104261875E0,-9.658929110E-1,2.296789383E0
6.143579174E0,-1.652790070E0,1.004157543E0,-1.048571587E0,2.199897670E0
6.148595528E0,-1.417278767E0,9.475655556E-1,-9.896161556E-1,1.971268556E0
6.153611882E0,-1.070591450E0,1.062736511E0,-8.052866459E-1,1.709988750E0
6.158628236E0,-9.505105019E-1,1.229022026E0,-7.518942356E-1,1.726067871E0
6.163644590E0,-8.758845329E-1,1.526672363E0,-3.758480549E-1,1.799767757E0
6.168660997E0,-9.909901619E-1,1.875818729E0,-5.262744427E-2,2.122151515E0
6.173677351E0,-1.243730545E0,2.132358074E0,8.954495192E-2,2.470189249E0
6.178693705E0,-1.591352463E0,2.360891819E0,1.100939512E-1,2.849268945E0
6.183710059E0,-2.029253483E0,2.391860485E0,8.329695463E-2,3.137802521E0
6.188726465E0,-2.667689323E0,2.388171673E0,-6.677561998E-2,3.581115643E0
6.193742820E0,-3.226864815E0,2.285498619E0,-3.010135293E-1,3.965699133E0
6.198759174E0,-3.707154274E0,2.110259056E0,-5.636365414E-1,4.302774947E0
6.203775528E0,-4.032114029E0,2.073158741E0,-6.612254977E-1,4.581828223E0
6.208791882E0,-4.130165100E0,2.087986469E0,-6.290521622E-1,4.670509380E0
6.213808236E0,-4.072924614E0,2.159554482E0,-6.597245336E-1,4.656997630E0
6.218824643E0,-3.520909309E0,2.390736103E0,-7.682614326E-1,4.324655721E0
6.223840997E0,-2.979208946E0,2.592342377E0,-7.052816153E-1,4.011651418E0
6.228857351E0,-2.493435860E0,2.811889648E0,-8.136524558E-1,3.845253711E0
6.233873705E0,-1.996368408E0,3.083066940E0,-1.008319378E0,3.808870771E0
6.238890111E0,-1.483189583E0,3.250463963E0,-1.234967589E0,3.780279389E0
6.243906465E0,-9.630784988E-1,3.307771206E0,-1.417599082E0,3.725380209E0
6.248922820E0,-5.267047882E-1,3.260423660E0,-1.501164556E0,3.627847213E0
6.253939174E0,-2.002344131E-1,3.111295223E0,-1.434471130E0,3.431903147E0
6.258955528E0,-4.596519470E-2,2.824456215E0,-1.259675741E0,3.092967617E0
6.263971934E0,5.748748779E-3,2.548695087E0,-1.251889348E0,2.839560994E0
6.268988288E0,9.128379822E-2,2.341538906E0,-1.221825838E0,2.642725025E0
6.274004643E0,2.009258270E-1,2.195749760E0,-1.117178559E0,2.471796134E0
6.279020997E0,3.748292923E-1,2.110554695E0,-9.190683365E-1,2.332300308E0
6.284037351E0,5.238924026E-1,1.994068623E0,-7.662830353E-1,2.199536908E0
6.289053757E0,6.478528976E-1,1.891237736E0,-6.662093401E-1,2.107208683E0
6.294070111E0,8.829050064E-1,1.825721741E0,-5.141057968E-1,2.092148631E0
6.299086465E0,1.240762711E0,1.783010721E0,-3.901790380E-1,2.207002270E0
6.304102820E0,1.568287373E0,1.736930132E0,-1.747826487E-1,2.346699926E0
6.309119226E0,1.808052540E0,1.751902342E0,-1.265715659E-1,2.520761029E0
6.314135580E0,2.125061035E0,1.698577881E0,-1.959994882E-1,2.727538638E0
6.319151934E0,2.346835136E0,1.643394947E0,-1.584452093E-1,2.869405338E0
6.324168288E0,2.468668461E0,1.514454365E0,-2.799302042E-1,2.909683301E0
6.329184643E0,2.756227493E0,1.379123926E0,-3.545908928E-1,3.102339037E0
6.334201049E0,3.140056133E0,1.223335028E0,-4.190226793E-1,3.395891800E0
6.339217403E0,3.548140526E0,9.844839573E-1,-4.875944257E-1,3.714331458E0
6.344233757E0,3.875180721E0,7.748539448E-1,-5.783352256E-1,3.993982460E0
6.349250111E0,4.150009632E0,5.873606205E-1,-6.601324677E-1,4.243035154E0
6.354266465E0,4.525808334E0,5.322697163E-1,-7.180253267E-1,4.613221488E0
6.359282872E0,4.897146702E0,4.417209625E-1,-7.066388130E-1,4.967544830E0
6.364299226E0,5.216058254E0,3.533911705E-1,-6.904692650E-1,5.273414154E0
6.369315580E0,5.458499432E0,3.046050072E-1,-5.884398222E-1,5.498569057E0
6.374331934E0,5.557452679E0,2.296962738E-1,-4.573898315E-1,5.580971789E0
6.379348288E0,5.646978855E0,1.854982376E-1,-3.424806595E-1,5.660395109E0
6.384364695E0,5.739043236E0,1.091582775E-1,-2.409549057E-1,5.745136383E0
6.389381049E0,5.905471325E0,1.958131790E-2,-1.190652326E-1,5.906703948E0
6.394397403E0,6.069628716E0,-1.533571482E-1,5.479753017E-4,6.071565816E0
6.399413757E0,6.233973026E0,-2.547241449E-1,9.421835840E-2,6.239886312E0
6.404430111E0,6.379408836E0,-4.169522524E-1,2.719198763E-1,6.398800411E0
6.409446518E0,6.460683823E0,-5.707262754E-1,4.472073019E-1,6.501242828E0
6.414462872E0,6.621486664E0,-6.995638013E-1,5.511085987E-1,6.681107381E0
6.419479226E0,6.802104473E0,-8.298173547E-1,6.244867444E-1,6.880930591E0
6.424495580E0,7.043336868E0,-9.517236948E-1,6.626439095E-1,7.138169876E0
6.429511986E0,7.297419071E0,-1.101283431E0,6.613019705E-1,7.409620138E0
6.434528340E0,7.507091999E0,-1.216054797E0,6.705163121E-1,7.634449009E0
6.439544695E0,7.658143997E0,-1.360784531E0,7.233296633E-1,7.811664984E0
6.444561049E0,7.815327644E0,-1.573566556E0,7.386872768E-1,8.006317305E0
6.449577403E0,7.954798698E0,-1.746743679E0,7.307608724E-1,8.177037805E0
6.454593809E0,7.947559357E0,-1.712743044E0,7.211840749E-1,8.161941860E0
6.459610163E0,8.293607712E0,-2.174635172E0,7.720826864E-1,8.608663002E0
6.464626518E0,8.411526680E0,-2.404990673E0,8.026336432E-1,8.785327654E0
6.469642872E0,8.488146782E0,-2.640869141E0,9.181334972E-1,8.936766458E0
6.474659226E0,8.463783264E0,-2.851191282E0,1.015977859E0,8.988722372E0
6.479675580E0,8.393600464E0,-3.076808214E0,1.154334307E0,9.013976105E0
6.484691986E0,8.246591568E0,-3.262622356E0,1.280684352E0,8.960531767E0
6.489708340E0,8.168720245E0,-3.377492666E0,1.359209299E0,8.943315776E0
6.494724695E0,7.975753784E0,-3.486128330E0,1.392098904E0,8.814969003E0
6.499741049E0,7.758674622E0,-3.468948841E0,1.355441928E0,8.606268690E0
6.504757403E0,7.610719204E0,-3.449978113E0,1.281594992E0,8.453867843E0
6.509773809E0,7.479150772E0,-3.362166882E0,1.222831130E0,8.290788767E0
6.514790163E0,7.289797306E0,-3.219755888E0,1.129031062E0,8.048769091E0
6.519806518E0,7.107290745E0,-3.048715353E0,1.005459785E0,7.798666323E0
6.524822872E0,6.874215126E0,-2.813125134E0,9.342872500E-1,7.486080368E0
6.529839278E0,6.616921425E0,-2.522316933E0,9.137628078E-1,7.140076633E0
6.534855632E0,6.488425255E0,-2.255096912E0,9.657877684E-1,6.936704577E0
6.539871986E0,6.328282356E0,-1.985326767E0,1.062632322E0,6.716983505E0
6.544888340E0,6.107760429E0,-1.751007318E0,1.151639938E0,6.457324418E0
6.549904695E0,5.915321350E0,-1.530370712E0,1.213807225E0,6.229477440E0
6.554921101E0,5.767576218E0,-1.330245495E0,1.124312639E0,6.024829244E0
6.559937455E0,5.597455025E0,-1.135818362E0,9.260320067E-1,5.786114533E0
6.564953809E0,5.479043961E0,-8.677868247E-1,6.041293144E-1,5.580138791E0
6.569970163E0,5.436110020E0,-5.763084888E-1,2.667793334E-1,5.473079100E0
6.574986518E0,5.391911983E0,-2.805451155E-1,-4.993249476E-2,5.399436420E0
6.580002924E0,5.355878830E0,-3.096783161E-2,-4.647750854E-1,5.376096440E0
6.585019278E0,5.318376541E0,2.347242832E-1,-5.984572172E-1,5.357086481E0
6.590035632E0,5.279311180E0,4.756555557E-1,-6.031711102E-1,5.334903011E0
6.595051986E0,5.243475914E0,6.681857109E-1,-4.658178687E-1,5.306363924E0
6.600068340E0,5.165433407E0,8.722777367E-1,-3.500127792E-1,5.250245678E0
6.605084695E0,4.963957310E0,1.026056290E0,-1.882032305E-1,5.072384463E0
6.610101101E0,4.639208317E0,1.146512508E0,3.618472815E-2,4.778917668E0
6.615117455E0,4.193718433E0,1.205172539E0,3.427551687E-2,4.363586823E0
6.620133809E0,3.656297684E0,1.257309914E0,-3.452965617E-2,3.866591945E0
6.625150163E0,3.196794987E0,1.339068890E0,-2.114367187E-1,3.472363628E0
6.630166518E0,2.853449821E0,1.484522581E0,-4.446672797E-1,3.247108278E0
6.635182924E0,2.645264626E0,1.696310282E0,-7.284529209E-1,3.225761487E0
6.640199278E0,2.474190235E0,1.989425898E0,-9.280795455E-1,3.307682628E0
6.645215632E0,2.287559509E0,2.239421129E0,-1.063141823E0,3.373159652E0
6.650231986E0,2.109236717E0,2.479737520E0,-1.198181987E0,3.468950529E0
6.655248340E0,1.838676929E0,2.707688570E0,-1.307705998E0,3.524543264E0
6.660264695E0,1.581251621E0,2.971353292E0,-1.394151330E0,3.643206693E0
6.665281101E0,1.300972939E0,3.234576941E0,-1.398190141E0,3.756321903E0
6.670297455E0,8.998308182E-1,3.497315884E0,-1.414113283E0,3.878225144E0
6.675313809E0,4.760208130E-1,3.769055843E0,-1.469317913E0,4.073238625E0
6.680330163E0,-1.120662689E-2,4.052041054E0,-1.512881994E0,4.325271577E0
6.685346518E0,-5.068340302E-1,4.394195557E0,-1.314348221E0,4.614471429E0
6.690362924E0,-9.940233231E-1,4.793399811E0,-1.062598467E0,5.009379165E0
6.695379278E0,-1.518166542E0,5.156453609E0,-8.632684350E-1,5.444178163E0
6.700395632E0,-2.146302223E0,5.473535538E0,-7.144145370E-1,5.922549506E0
6.705411986E0,-2.935916901E0,5.698872089E0,-5.825957060E-1,6.437093202E0
6.710428393E0,-3.800995827E0,5.884723186E0,-4.633049369E-1,7.020839531E0
6.715444747E0,-4.687020302E0,5.961118221E0,-3.552753925E-1,7.591397128E0
6.720461101E0,-5.584737778E0,5.918209553E0,-2.611460686E-1,8.141418649E0
6.725477455E0,-6.449012756E0,5.698578358E0,-3.071472049E-1,8.611498141E0
6.730493809E0,-7.244398117E0,5.361758232E0,-2.881616950E-1,9.017360622E0
6.735510163E0,-8.009091377E0,4.900932789E0,-3.686432242E-1,9.396839081E0
6.740526570E0,-8.556410789E0,4.366770744E0,-4.280612469E-1,9.615824913E0
6.745542924E0,-8.811635017E0,3.750961781E0,-4.994032383E-1,9.589787774E0
6.750559278E0,-8.676268578E0,3.183843136E0,-4.567995071E-1,9.253278302E0
6.755575632E0,-8.247884750E0,2.535165310E0,-3.363522291E-1,8.635264838E0
6.760591986E0,-7.667500019E0,1.889508724E0,-3.182207346E-1,7.903294515E0
6.765608393E0,-7.006659508E0,1.321692944E0,-2.187939882E-1,7.133583987E0
6.770624747E0,-6.454148293E0,6.717338562E-1,-6.569004059E-2,6.489342936E0
6.775641101E0,-5.901545525E0,7.218694687E-2,1.113991737E-1,5.903038227E0
6.780657455E0,-5.159329891E0,-4.283738136E-1,3.308250904E-1,5.187642460E0
6.785673809E0,-4.410903454E0,-7.908248901E-1,6.482946873E-1,4.527886846E0
6.790690215E0,-3.670323849E0,-1.019742489E0,8.385680914E-1,3.900557440E0
6.795706570E0,-3.181154251E0,-1.088816166E0,1.292209387E0,3.602092185E0
6.800722924E0,-2.677017689E0,-1.136792183E0,1.359314799E0,3.210367097E0
6.805739278E0,-2.035329342E0,-1.175422192E0,1.304755807E0,2.688228148E0
6.810755632E0,-1.538478374E0,-1.190817833E0,1.207188368E0,2.289599654E0
6.815772038E0,-1.131350040E0,-1.054195881E0,1.069134474E0,1.879981487E0
6.820788393E0,-7.520041466E-1,-7.805542946E-1,9.438139200E-1,1.437205608E0
6.825804747E0,-5.947718620E-1,-4.402923584E-1,8.239444494E-1,1.107472521E0
6.830821101E0,-7.436227798E-1,3.505945206E-2,6.324768662E-1,9.768474754E-1
6.835837455E0,-8.705091476E-1,7.123475075E-1,6.256338954E-1,1.287106413E0
6.840853809E0,-1.092205524E0,1.469763756E0,7.555692196E-1,1.980909703E0
6.845870215E0,-1.489639759E0,2.094495296E0,9.667246938E-1,2.745995956E0
6.850886570E0,-2.029170513E0,2.629449844E0,1.112352014E0,3.502694171E0
6.855902924E0,-2.882578850E0,2.997915268E0,1.176361918E0,4.322104134E0
6.860919278E0,-3.803225994E0,3.261764526E0,1.128597736E0,5.135890248E0
6.865935632E0,-5.009009838E0,3.346079350E0,9.793732762E-1,6.102917219E0
6.870952038E0,-6.248886108E0,3.384025097E0,7.125710249E-1,7.141985783E0
6.875968393E0,-7.546860218E0,3.238707542E0,3.363560438E-1,8.219334589E0
6.880984747E0,-8.740840912E0,2.947608948E0,-1.504439116E-1,9.225688686E0
6.886001101E0,-9.845806122E0,2.503099918E0,-6.953426600E-1,1.018277510E1
6.891017455E0,-1.066795921E1,2.015475273E0,-1.126237392E0,1.091493953E1
6.896033861E0,-1.106617737E1,1.504402161E0,-1.538338780E0,1.127341978E1
6.901050215E0,-1.109543705E1,1.008920193E0,-1.928330421E0,1.130686082E1
6.906066570E0,-1.091047001E1,5.230407715E-1,-2.262252331E0,1.115480672E1
6.911082924E0,-1.029524612E1,1.484794617E-1,-2.479400635E0,1.059063579E1
6.916099278E0,-9.483507156E0,-1.878051758E-1,-2.591331005E0,9.832963701E0
6.921115684E0,-8.649478912E0,-4.969673157E-1,-2.525444984E0,9.024319051E0
6.926132038E0,-7.850373745E0,-7.330484390E-1,-2.278439999E0,8.207132068E0
6.931148393E0,-7.040579319E0,-8.502421379E-1,-1.842483401E0,7.327169571E0
6.936164747E0,-6.244360447E0,-8.246183395E-1,-1.273760557E0,6.426079579E0
6.941181101E0,-5.512686253E0,-6.709332466E-1,-5.996527672E-1,5.585646299E0
6.946197507E0,-4.923171997E0,-3.614640236E-1,4.421508312E-2,4.936621692E0
6.951213861E0,-4.495611668E0,1.412105560E-2,4.198079109E-1,4.515192394E0
6.956230215E0,-4.068325520E0,4.927568436E-1,5.573989153E-1,4.135791991E0
6.961246570E0,-3.671268940E0,9.989323616E-1,5.620597601E-1,3.846035968E0
6.966262924E0,-3.293515205E0,1.476465225E0,4.716082811E-1,3.640000871E0
6.971279278E0,-2.931396961E0,1.866854191E0,3.459109068E-1,3.492547361E0
6.976295684E0,-2.538026333E0,2.142848015E0,1.847430468E-1,3.326786028E0
6.981312038E0,-2.209927082E0,2.315624237E0,9.579253197E-2,3.202353748E0
6.986328393E0,-1.916531563E0,2.473344326E0,-4.884970188E-2,3.129362823E0
6.991344747E0,-1.650621414E0,2.604090691E0,-1.911602020E-1,3.089074554E0
6.996361153E0,-1.337202072E0,2.780389786E0,-4.438890219E-1,3.117004043E0
7.001377507E0,-9.310817719E-1,2.887969971E0,-7.235263586E-1,3.119418890E0
7.006393861E0,-6.104817390E-1,3.016624451E0,-7.741959095E-1,3.173655674E0
7.011410215E0,-3.381834030E-1,3.038473606E0,-1.053153634E0,3.233546419E0
7.016426570E0,-1.802525520E-1,2.928256512E0,-1.275439978E0,3.199050534E0
7.021442924E0,-1.143684387E-1,2.765740871E0,-1.431845427E0,3.116501890E0
7.026459330E0,-1.949396133E-1,2.532328129E0,-1.549292803E0,2.975062250E0
7.031475684E0,-2.896504402E-1,2.329133511E0,-1.650441885E0,2.869271459E0
7.036492038E0,-3.335247040E-1,2.127699852E0,-1.677290559E0,2.729770871E0
7.041508393E0,-3.884720802E-1,2.012115002E0,-1.673680425E0,2.645888036E0
7.046524747E0,-4.400019646E-1,1.891670704E0,-1.379405141E0,2.382179322E0
7.051541153E0,-4.712519646E-1,1.835937500E0,-9.965073466E-1,2.141441526E0
7.056557507E0,-6.713552475E-1,1.820915222E0,-5.369434357E-1,2.013643059E0
7.061573861E0,-9.779934883E-1,1.789307594E0,-1.301292181E-1,2.043288169E0
7.066590215E0,-1.343605042E0,1.783995628E0,1.597825885E-1,2.239072439E0
7.071606570E0,-1.897877693E0,1.766074181E0,3.924268484E-1,2.622013841E0
7.076622976E0,-2.535944939E0,1.797114849E0,4.524136186E-1,3.140910154E0
7.081639330E0,-3.105491638E0,1.943380833E0,4.374836087E-1,3.689471410E0
7.086655684E0,-3.580445290E0,1.991954803E0,3.674120307E-1,4.113692260E0
7.091672038E0,-3.867651939E0,2.246826649E0,2.375602126E-1,4.479218276E0
7.096688393E0,-3.802474022E0,2.571427345E0,-4.057508707E-2,4.590500367E0
7.101704799E0,-3.517242432E0,2.836082458E0,-2.855545878E-1,4.527239717E0
7.106721153E0,-3.447788239E0,2.928019047E0,-3.206754327E-1,4.534685437E0
7.111737507E0,-2.855437279E0,3.169733524E0,-5.353000164E-1,4.299683567E0
7.116753861E0,-2.513247490E0,3.321905136E0,-5.867945552E-1,4.206636962E0
7.121770215E0,-2.115252495E0,3.443797112E0,-7.454447150E-1,4.109710389E0
7.126786622E0,-1.831562996E0,3.389144421E0,-8.960644007E-1,3.955231260E0
7.131802976E0,-1.482769966E0,3.287075043E0,-1.005772114E0,3.743667541E0
7.136819330E0,-1.047254562E0,3.114049911E0,-1.203394294E0,3.498886508E0
7.141835684E0,-5.392656326E-1,2.973431587E0,-1.219982624E0,3.258904790E0
7.146852038E0,1.514816284E-2,2.808435917E0,-1.256815076E0,3.076869497E0
7.151868445E0,5.131797791E-1,2.652772903E0,-1.284983635E0,2.991945940E0
7.156884799E0,9.331417084E-1,2.529987812E0,-1.222622275E0,2.960810194E0
7.161901153E0,1.208091736E0,2.449426651E0,-1.003218889E0,2.909574660E0
7.166917507E0,1.392914772E0,2.431976795E0,-7.751681209E-1,2.907852869E0
7.171933861E0,1.518956184E0,2.348703861E0,-5.727518201E-1,2.855115123E0
7.176950268E0,1.760853767E0,2.209271431E0,-4.470559955E-1,2.860305108E0
7.181966622E0,2.142595291E0,2.043022394E0,-4.075074494E-1,2.988430592E0
7.186982976E0,2.544731140E0,1.869817972E0,-3.677857518E-1,3.179173192E0
7.191999330E0,2.933886051E0,1.733290195E0,-4.422692657E-1,3.436216577E0
7.197015684E0,3.168892860E0,1.666938543E0,-3.810745478E-1,3.600803227E0
7.202032090E0,3.235476494E0,1.680223465E0,-2.199815661E-1,3.652376065E0
7.207048445E0,3.303337574E0,1.736726522E0,-7.044564933E-2,3.732722965E0
7.212064799E0,3.295493603E0,1.806566954E0,1.281423420E-1,3.760370022E0
7.217081153E0,3.182757378E0,1.768400192E0,2.616838813E-1,3.650433155E0
7.222097507E0,2.948116302E0,1.745185137E0,4.025409818E-1,3.449507231E0
7.227113913E0,2.725538254E0,1.659683466E0,4.671150446E-1,3.225105339E0
7.232130268E0,2.665809631E0,1.526403666E0,4.106343985E-1,3.099204696E0
7.237146622E0,2.745042324E0,1.458151817E0,3.429087698E-1,3.127147343E0
7.242162976E0,3.025412560E0,1.321254253E0,1.844440550E-1,3.306486590E0
7.247179330E0,3.380007267E0,1.142027855E0,1.044576466E-1,3.569255965E0
7.252195736E0,3.765734196E0,9.896769524E-1,9.060149640E-2,3.894665985E0
7.257212090E0,4.247159481E0,8.066198826E-1,8.237182349E-2,4.323862210E0
7.262228445E0,4.752479553E0,6.763926744E-1,1.418333799E-1,4.802466623E0
7.267244799E0,5.162165642E0,4.839676619E-1,2.093712389E-1,5.189028341E0
7.272261153E0,5.495585442E0,3.562643528E-1,3.356092572E-1,5.517337873E0
7.277277559E0,5.858071327E0,2.139329910E-1,3.798630238E-1,5.874271267E0
7.282293913E0,6.113288879E0,4.440069199E-2,4.189939797E-1,6.127791470E0
7.287310268E0,6.314047337E0,-1.142487526E-1,4.095700383E-1,6.328348455E0
7.292326622E0,6.498708725E0,-3.007922173E-1,4.160376489E-1,6.518955313E0
7.297343028E0,6.636278152E0,-4.605501890E-1,4.191861749E-1,6.665434063E0
7.302359382E0,6.793807983E0,-6.754454970E-1,4.138830006E-1,6.839835720E0
7.307375736E0,6.949790478E0,-8.456892371E-1,4.139358401E-1,7.013281746E0
7.312392090E0,7.152175903E0,-1.004882932E0,4.262140691E-1,7.234989170E0
7.317408445E0,7.417753220E0,-1.198598146E0,4.220042825E-1,7.525808127E0
7.322424799E0,7.643750191E0,-1.409996748E0,4.156921506E-1,7.783817044E0
7.327441205E0,7.842267513E0,-1.586512089E0,4.431388378E-1,8.013398305E0
7.332457559E0,8.006270409E0,-1.787873983E0,4.634428620E-1,8.216546630E0
7.337453340E0,7.999577522E0,-1.746404171E0,4.718973935E-1,8.201576386E0
7.342490268E0,8.300739288E0,-2.179212093E0,4.973766804E-1,8.596430750E0
7.347506622E0,8.385744095E0,-2.325764418E0,5.320825577E-1,8.718543227E0
7.352523028E0,8.465341568E0,-2.506682873E0,5.854792595E-1,8.848064921E0
7.357539382E0,8.592197418E0,-2.712261677E0,6.909738779E-1,9.036573730E0
7.362555736E0,8.589356422E0,-2.915888309E0,7.772104144E-1,9.104037808E0
7.367572090E0,8.586110115E0,-3.115372181E0,8.845493197E-1,9.176560261E0
7.372588445E0,8.508332253E0,-3.284614801E0,9.727617502E-1,9.172059613E0
7.377604851E0,8.356130600E0,-3.404330730E0,1.101650238E0,9.089995576E0
7.382621205E0,8.158293724E0,-3.515037060E0,1.250314236E0,8.970871067E0
7.387637559E0,7.931586266E0,-3.631223202E0,1.385713696E0,8.832669193E0
7.392653913E0,7.647323608E0,-3.702653885E0,1.534079790E0,8.633921760E0
7.397670320E0,7.374914169E0,-3.738606930E0,1.589077234E0,8.419721328E0
7.402686674E0,7.076026440E0,-3.727301836E0,1.585129023E0,8.153254759E0
7.407703028E0,6.810428619E0,-3.659068108E0,1.596293807E0,7.894230255E0
7.412719382E0,6.556520462E0,-3.550433636E0,1.577137113E0,7.621082669E0
7.417735736E0,6.354878426E0,-3.398975849E0,1.484497428E0,7.358073745E0
7.422752143E0,6.102508545E0,-3.214646339E0,1.375974298E0,7.033339669E0
7.427768497E0,5.902214527E0,-3.035543919E0,1.125434637E0,6.731810034E0
7.432784851E0,5.725155830E0,-2.880561590E0,8.196118474E-1,6.461176978E0
7.437801205E0,5.575972080E0,-2.654002666E0,4.684484005E-1,6.193112198E0
7.442817559E0,5.399583340E0,-2.419878006E0,1.730316430E-1,5.919564997E0
7.447833965E0,5.370482922E0,-2.170761824E0,-1.095154285E-1,5.793641975E0
7.452850320E0,5.366462231E0,-1.856134892E0,-1.807579696E-1,5.681269845E0
7.457866674E0,5.373092651E0,-1.578574419E0,-2.951576412E-1,5.607953269E0
7.462883028E0,5.335280418E0,-1.295053244E0,-4.896790683E-1,5.512001963E0
7.467899382E0,5.276935101E0,-9.718988538E-1,-5.279749632E-1,5.391603565E0
7.472915736E0,5.250606060E0,-6.472542286E-1,-5.369244218E-1,5.317526668E0
7.477932143E0,5.220420837E0,-3.256096840E-1,-5.900588036E-1,5.263742469E0
7.482948497E0,5.246122837E0,-4.252600670E-2,-8.304785490E-1,5.311620083E0
7.487964851E0,5.275065422E0,2.217035294E-1,-9.230924249E-1,5.359810378E0
7.492981205E0,5.331237793E0,4.890644550E-1,-1.086565375E0,5.462774456E0
7.497997559E0,5.328750610E0,7.317509651E-1,-1.338552713E0,5.542812094E0
7.503013965E0,5.258187771E0,9.572196007E-1,-1.516682863E0,5.555639919E0
7.508030320E0,5.009699345E0,1.175298929E0,-1.625656843E0,5.396403920E0
7.513046674E0,4.571558475E0,1.409835100E0,-1.780600548E0,5.104637129E0
7.518063028E0,3.953461647E0,1.596118927E0,-1.851257086E0,4.648075669E0
7.523079382E0,3.241425037E0,1.851046085E0,-1.849493265E0,4.165793228E0
7.528095788E0,2.492835045E0,2.189223051E0,-1.741791248E0,3.747100330E0
7.533112143E0,1.803317070E0,2.641920090E0,-1.646398544E0,3.597543937E0
7.538128497E0,1.201515675E0,3.142330408E0,-1.637219191E0,3.741439160E0
7.543144851E0,6.992464066E-1,3.661922455E0,-1.684873581E0,4.091139277E0
7.548161205E0,2.244901657E-1,4.159688950E0,-1.701079011E0,4.499675299E0
7.553177611E0,-2.637310028E-1,4.579955101E0,-1.686416984E0,4.887693220E0
7.558193965E0,-7.441015244E-1,4.979446411E0,-1.614038944E0,5.287125434E0
7.563210320E0,-1.197632790E0,5.283601761E0,-1.514326572E0,5.625296155E0
7.568226674E0,-1.657858849E0,5.542517662E0,-1.357871056E0,5.942374256E0
7.573243028E0,-2.007670403E0,5.780023575E0,-1.116840601E0,6.219867032E0
7.578259434E0,-2.364393234E0,5.967405319E0,-8.207948208E-1,6.471011184E0
7.583275788E0,-2.666055679E0,6.061240196E0,-5.565656424E-1,6.645016999E0
7.588292143E0,-3.020414352E0,6.073585033E0,-3.147511482E-1,6.790464366E0
7.593308497E0,-3.389282227E0,5.999591351E0,-5.991661549E-2,6.891002858E0
7.598324851E0,-3.782180786E0,5.892216682E0,1.599302292E-1,7.003476752E0
7.603341257E0,-4.165548325E0,5.735286713E0,3.574211001E-1,7.097397859E0
7.608357611E0,-4.460341454E0,5.440861702E0,4.847497940E-1,7.052134734E0
7.613373965E0,-4.786059380E0,5.098144054E0,5.734608769E-1,7.016145278E0
7.618390320E0,-5.106482506E0,4.777313232E0,6.957838535E-1,7.027303926E0
7.623406674E0,-5.344712257E0,4.407514572E0,7.185637355E-1,6.964802055E0
7.628423080E0,-5.361300468E0,4.030719280E0,6.966009140E-1,6.743551992E0
7.633439434E0,-5.222887993E0,3.616682053E0,5.369543433E-1,6.375521000E0
7.638455788E0,-4.928751469E0,3.159159660E0,2.794313431E-1,5.860969431E0
7.643472143E0,-4.533607006E0,2.708812237E0,-7.106113434E-2,5.281695363E0
7.648488497E0,-4.111336231E0,2.263437271E0,-3.135958910E-1,4.703676888E0
7.653504903E0,-3.731399536E0,1.774902344E0,-4.788928032E-1,4.159682577E0
7.658521257E0,-3.496801853E0,1.357701778E0,-6.018772125E-1,3.799109567E0
7.663537611E0,-3.436696053E0,1.020516872E0,-5.691601038E-1,3.629914278E0
7.668553965E0,-3.453079700E0,7.820262909E-1,-4.593096972E-1,3.570194664E0
7.673570320E0,-3.527667046E0,6.102099419E-1,-3.326815367E-1,3.595478822E0
7.678586726E0,-3.792122841E0,5.357198715E-1,-8.423388004E-2,3.830703169E0
7.683603080E0,-3.887477398E0,5.678319931E-1,-8.330523968E-2,3.929612380E0
7.688619434E0,-3.856544018E0,6.949796677E-1,-4.489195347E-2,3.918921253E0
7.693635788E0,-3.770522118E0,9.727110863E-1,1.397585869E-2,3.893995278E0
7.698652143E0,-3.745804310E0,1.317846775E0,7.597875595E-2,3.971591976E0
7.703668549E0,-3.748166561E0,1.740362644E0,1.001080275E-1,4.133719429E0
7.708684903E0,-3.920339584E0,2.168847084E0,7.624590397E-2,4.480934453E0
7.713701257E0,-4.289824963E0,2.515205383E0,1.942479610E-2,4.972849651E0
7.718717611E0,-4.903991699E0,2.786456585E0,-1.549426317E-1,5.642471276E0
7.723733965E0,-5.775004864E0,2.919966698E0,-2.139905691E-1,6.474772479E0
7.728750320E0,-6.859957218E0,2.850884438E0,-1.141002178E-1,7.429641578E0
7.733766726E0,-7.878607750E0,2.672980309E0,1.191581488E-1,8.320545804E0
7.738783080E0,-8.665236473E0,2.379930973E0,4.119273424E-1,8.995558832E0
7.743799434E0,-9.216848373E0,1.998841763E0,5.800005198E-1,9.448918612E0
7.748815788E0,-9.712409973E0,1.487196922E0,6.091257334E-1,9.844475422E0
7.753832195E0,-1.025417042E1,9.269070625E-1,5.641977787E-1,1.031142506E1
7.758848549E0,-1.063855553E1,4.113297462E-1,5.646545887E-1,1.066146757E1
7.763864903E0,-1.103279305E1,-2.004995346E-1,4.621169567E-1,1.104428696E1
7.768881257E0,-1.119493675E1,-6.762695312E-1,4.263337851E-1,1.122344465E1
7.773897611E0,-1.110098267E1,-1.061275005E0,4.764350653E-1,1.116177007E1
7.778914018E0,-1.067881012E1,-1.374141216E0,5.310617685E-1,1.077994788E1
7.783930372E0,-9.930970192E0,-1.576613426E0,5.416955948E-1,1.006992120E1
7.788946726E0,-9.005788803E0,-1.740578651E0,3.848279715E-1,9.180519516E0
7.793963080E0,-7.987132072E0,-1.854447842E0,5.147016048E-2,8.199750284E0
7.798979434E0,-6.832244396E0,-1.792036057E0,-3.645759821E-1,7.072755641E0
7.803995840E0,-5.594471931E0,-1.575623035E0,-7.756876945E-1,5.863650360E0
7.809012195E0,-4.399064541E0,-1.280240059E0,-1.082337618E0,4.707678638E0
7.814028549E0,-3.359573364E0,-8.567132950E-1,-1.261022687E0,3.689291135E0
7.819044903E0,-2.532367706E0,-3.637337685E-1,-1.330666661E0,2.883723672E0
7.824061257E0,-1.995356560E0,1.329150200E-1,-1.237807751E0,2.351867817E0
7.829077611E0,-1.692538738E0,6.776533127E-1,-9.706890583E-1,2.065463299E0
7.834094018E0,-1.627510548E0,1.177178860E0,-4.746966362E-1,2.063947079E0
7.839110372E0,-2.070933819E0,1.716541290E0,3.711407185E-1,2.715331714E0
7.844126726E0,-2.170833111E0,2.206735134E0,4.523487687E-1,3.128388684E0
7.849143080E0,-2.032968044E0,2.549632072E0,6.335454583E-1,3.321891422E0
7.854159434E0,-1.829774857E0,2.731146336E0,7.984286547E-1,3.383005269E0
7.859175840E0,-1.654724598E0,2.811253071E0,8.600975275E-1,3.373577490E0
7.864192195E0,-1.509992123E0,2.711446285E0,9.156934619E-1,3.235817004E0
7.869208549E0,-1.361904144E0,2.575699329E0,8.855440617E-1,3.045192641E0
7.874224903E0,-1.377367496E0,2.378152370E0,7.723797560E-1,2.854701456E0
7.879241257E0,-1.366199493E0,2.270548344E0,5.665049553E-1,2.709763588E0
7.884257663E0,-1.245675087E0,2.239723206E0,2.807533145E-1,2.578156101E0
7.889274018E0,-1.032547474E0,2.164149761E0,-1.776036024E-1,2.404421243E0
7.894290372E0,-1.075229168E0,2.104443073E0,-1.130985022E-1,2.365922586E0
7.899306726E0,-1.131173611E0,2.037329197E0,-4.695580006E-1,2.377130352E0
7.904323080E0,-1.237651348E0,1.992517471E0,-6.280906200E-1,2.428251338E0
7.909339486E0,-1.238403797E0,1.970867157E0,-6.563860774E-1,2.418430069E0
7.914355840E0,-1.209366798E0,1.958847523E0,-5.958726406E-1,2.377964649E0
7.919372195E0,-1.131010056E0,1.983113766E0,-5.323109627E-1,2.344201125E0
7.924388549E0,-1.097008228E0,1.999984264E0,-4.582976103E-1,2.326671616E0
7.929404903E0,-1.256065369E0,1.987105846E0,-5.293050408E-1,2.409658416E0
7.934421309E0,-1.393132687E0,2.006019592E0,-4.436610341E-1,2.482290958E0
7.939437663E0,-1.463128567E0,2.151988506E0,-3.839198351E-1,2.630436119E0
7.944454018E0,-1.470866203E0,2.362983227E0,-3.712192178E-1,2.808013680E0
7.949470372E0,-1.432941914E0,2.548577309E0,-4.962801933E-1,2.965613403E0
7.954486726E0,-1.457183838E0,2.649328709E0,-5.920698047E-1,3.081050794E0
7.959503132E0,-1.632277489E0,2.603174210E0,-6.505934596E-1,3.140719283E0
7.964519486E0,-1.867372513E0,2.453427315E0,-6.807185411E-1,3.157493218E0
7.969535840E0,-2.110493660E0,2.218829155E0,-6.905472875E-1,3.139146678E0
7.974552195E0,-2.359827995E0,2.013994217E0,-5.361336470E-1,3.148396443E0
7.979568549E0,-2.632054329E0,1.893889427E0,-3.771262169E-1,3.264468002E0
7.984584903E0,-2.793468475E0,1.901336193E0,-3.756738305E-1,3.399952392E0
7.989601309E0,-2.727262497E0,1.990663528E0,-4.112188816E-1,3.401441309E0
7.994617663E0,-2.819146156E0,2.187605858E0,-3.175022602E-1,3.582458950E0
7.999634018E0,-2.849230766E0,2.431826591E0,-3.078174591E-1,3.758543351E0
8.004650372E0,-2.827563286E0,2.713088036E0,-4.129786491E-1,3.940369550E0
8.009666778E0,-2.677850723E0,2.959270000E0,-5.093010664E-1,4.023375574E0
8.014683132E0,-2.445833206E0,3.174827576E0,-7.412625551E-1,4.075671771E0
8.019699486E0,-2.100467682E0,3.386062622E0,-1.110096693E0,4.136387220E0
8.024715840E0,-1.670535088E0,3.528574944E0,-1.392783642E0,4.145042205E0
8.029732195E0,-1.141710281E0,3.569144249E0,-1.484149098E0,4.030507609E0
8.034748601E0,-6.383037567E-1,3.548931122E0,-1.493697405E0,3.903008549E0
8.039764955E0,-9.081459045E-2,3.463581085E0,-1.423332691E0,3.745733196E0
8.044781309E0,4.050636292E-1,3.301351070E0,-1.310900688E0,3.575116229E0
8.049797663E0,8.974695206E-1,3.139448643E0,-1.137750864E0,3.457754524E0
8.054814018E0,1.316921234E0,2.858161926E0,-9.779230952E-1,3.295406608E0
8.059830372E0,1.627564430E0,2.536524296E0,-8.218972683E-1,3.123849644E0
8.064846778E0,1.884398460E0,2.274904490E0,-7.454466224E-1,3.046611012E0
8.069863132E0,2.173543930E0,2.032616138E0,-6.177404523E-1,3.039313220E0
8.074879486E0,2.430188179E0,1.802103758E0,-6.801524162E-1,3.100967567E0
8.079895840E0,2.548971176E0,1.635579824E0,-5.141667128E-1,3.071928194E0
8.084912247E0,2.599304199E0,1.496908426E0,-5.099939108E-1,3.042566506E0
8.089928601E0,2.674258709E0,1.371003628E0,-4.623445868E-1,3.040571181E0
8.094944955E0,2.809661388E0,1.233893394E0,-4.626768529E-1,3.103346564E0
8.099961309E0,3.014838219E0,1.120941639E0,-3.967992663E-1,3.240865517E0
8.104977663E0,3.205909729E0,9.911203384E-1,-3.282611370E-1,3.371636411E0
8.109994070E0,3.275330544E0,8.564558029E-1,-2.346425951E-1,3.393576853E0
8.115010424E0,3.455319405E0,7.603383064E-1,-2.285023183E-1,3.545357505E0
8.120026778E0,3.661959171E0,6.688296795E-1,-2.310762107E-1,3.729701641E0
8.125043132E0,3.811415195E0,6.148300171E-1,-1.919916868E-1,3.865457612E0
8.130059486E0,3.961100578E0,5.117907524E-1,-1.549620032E-1,3.997031497E0
8.135075893E0,4.134866238E0,4.022688866E-1,-8.603027463E-2,4.155278603E0
8.140092247E0,4.263318539E0,2.809970379E-1,-4.479743540E-2,4.272803659E0
8.145108601E0,4.523444653E0,1.450494528E-1,-2.395796590E-2,4.525833056E0
8.150124955E0,4.864893913E0,3.702199459E-2,4.349612817E-2,4.865229216E0
8.155141309E0,5.208703518E0,-1.320539713E-1,9.534735978E-2,5.211249534E0
8.160157715E0,5.518997192E0,-3.055679798E-1,1.673061550E-1,5.529981297E0
8.165174070E0,5.836557865E0,-4.743509293E-1,2.243678719E-1,5.860098758E0
8.170190424E0,6.185379982E0,-6.579929590E-1,2.782032192E-1,6.226497995E0
8.175206778E0,6.505784988E0,-8.422783613E-1,4.196374118E-1,6.573489690E0
8.180223132E0,6.876827240E0,-1.053834200E0,5.268337727E-1,6.977024669E0
8.185239538E0,7.205322266E0,-1.309502602E0,6.380733848E-1,7.351095405E0
8.190255893E0,7.520141602E0,-1.485025764E0,7.622831464E-1,7.703175113E0
8.195272247E0,7.838172913E0,-1.645040035E0,8.469869494E-1,8.053601568E0
8.200288601E0,8.094972610E0,-1.830217242E0,9.346631169E-1,8.351758609E0
8.205304955E0,8.314649582E0,-1.937588215E0,9.246736169E-1,8.587355068E0
8.210321309E0,8.308445930E0,-1.890762448E0,9.314193130E-1,8.571627521E0
8.215337715E0,8.602793694E0,-2.172720432E0,8.854381442E-1,8.916993558E0
8.220354070E0,8.738310814E0,-2.292720318E0,8.504617214E-1,9.074024877E0
8.225370424E0,8.861124039E0,-2.423058987E0,7.711884975E-1,9.218756195E0
8.230386778E0,8.906755447E0,-2.573135614E0,6.758021116E-1,9.295591858E0
8.235403184E0,8.911218643E0,-2.754698277E0,5.026411414E-1,9.340815190E0
8.240419538E0,8.869799614E0,-2.939219475E0,3.187676072E-1,9.349543791E0
8.245435893E0,8.773022652E0,-3.102624655E0,1.670593768E-1,9.306992803E0
8.250452247E0,8.575506210E0,-3.259664536E0,9.566462040E-2,9.174631947E0
8.255468601E0,8.313257217E0,-3.407822132E0,8.535344899E-2,8.985031022E0
8.260484955E0,8.031781197E0,-3.501513481E0,1.568630487E-1,8.763259203E0
8.265501361E0,7.606726646E0,-3.569721222E0,3.089727163E-1,8.408368689E0
8.270517715E0,7.066920280E0,-3.557674885E0,5.210085511E-1,7.929051819E0
8.275534070E0,6.575056076E0,-3.465486288E0,7.911252379E-1,7.474412135E0
8.280550424E0,6.164469719E0,-3.358062506E0,1.095810771E0,7.104792182E0
8.285566778E0,5.889989376E0,-3.182737589E0,1.408615470E0,6.841490404E0
8.290583184E0,5.765724182E0,-3.020663261E0,1.535770774E0,6.687792891E0
8.295599538E0,5.736418724E0,-2.838082552E0,1.565813184E0,6.588852956E0
8.300615893E0,5.730101585E0,-2.654272079E0,1.419499516E0,6.472573161E0
8.305632247E0,5.770547390E0,-2.555312634E0,1.122196078E0,6.410004982E0
8.310648601E0,5.836115837E0,-2.437781096E0,7.453265786E-1,6.368558427E0
8.315665007E0,6.003232002E0,-2.315578938E0,4.510632753E-1,6.450128554E0
8.320681361E0,6.168874264E0,-2.176519632E0,2.316180617E-1,6.545677529E0
8.325697715E0,6.299524784E0,-1.991338968E0,1.278592646E-1,6.608009639E0
