"Time (s)","Linear Acceleration x (m/s^2)","Linear Acceleration y (m/s^2)","Linear Acceleration z (m/s^2)","Absolute acceleration (m/s^2)"
1.146578680E-1,-2.782014757E-2,2.094364166E-1,-3.172645569E-1,3.811749890E-1
1.197775030E-1,-4.314229637E-2,1.484615803E-1,-2.738084793E-1,3.144410627E-1
1.248969830E-1,-5.775416642E-2,9.560513496E-2,-1.688184738E-1,2.024242146E-1
1.300163050E-1,-2.597773075E-2,1.071844101E-1,-1.806068420E-2,1.117565594E-1
1.351354720E-1,-3.253057599E-2,6.304574013E-2,9.453582764E-2,1.181948663E-1
1.402544830E-1,-2.506558597E-2,2.460622787E-2,1.501874924E-1,1.542401793E-1
1.453733370E-1,-1.542076468E-2,-2.721619606E-2,2.111692429E-1,2.134735825E-1
1.504920870E-1,-3.590340912E-2,-2.326107025E-2,3.121671677E-1,3.150848659E-1
1.556107330E-1,-2.426251769E-3,-2.351140976E-2,4.104909897E-1,4.111709203E-1
1.607292220E-1,2.035690844E-2,-7.663011551E-2,4.115839005E-1,4.191513873E-1
1.658476080E-1,-1.725880057E-2,-1.139042377E-1,4.158821106E-1,4.315437075E-1
1.709658890E-1,2.083674073E-3,-1.060171127E-1,4.511432648E-1,4.634373908E-1
1.760840660E-1,-4.758790135E-3,-1.029584408E-1,4.909048080E-1,5.016080314E-1
1.812021390E-1,1.695965976E-2,-9.290504456E-2,4.769802094E-1,4.862397531E-1
1.863201080E-1,5.623191595E-3,-1.199371815E-1,3.852014542E-1,4.034807406E-1
1.914379720E-1,-7.926896214E-4,-1.012501717E-1,3.105792999E-1,3.266676096E-1
1.965557330E-1,2.114729583E-2,-2.846693993E-2,2.711038589E-1,2.734133814E-1
2.016734410E-1,1.214073598E-2,-2.586746216E-2,1.817293167E-1,1.839621364E-1
2.067910970E-1,-1.502854377E-2,-7.349252701E-3,5.986118317E-2,6.215488632E-2
2.119087010E-1,2.605433017E-2,-3.303527832E-3,-3.323841095E-2,4.236193314E-2
2.170262530E-1,2.169162780E-2,4.303765297E-2,-8.912849426E-2,1.013245024E-1
2.221437530E-1,-1.755264401E-2,7.495379448E-2,-1.228485107E-1,1.449755952E-1
2.272612010E-1,-1.152050495E-2,8.848762512E-2,-2.192201614E-1,2.366859967E-1
2.323785970E-1,2.018262446E-2,7.719993591E-2,-3.044233322E-1,3.147073778E-1
2.374959410E-1,-4.867315292E-4,1.119999886E-1,-3.249855042E-1,3.437438178E-1
2.426132330E-1,-3.019702435E-2,1.193678379E-1,-2.870264053E-1,3.123214664E-1
2.477304720E-1,-7.267594337E-4,1.281266212E-1,-3.300209045E-1,3.540208422E-1
2.527567220E-1,1.385886967E-2,1.123003960E-1,-3.772640228E-1,3.938674779E-1
2.577720870E-1,-2.377179265E-2,1.214675903E-1,-3.137578964E-1,3.372884392E-1
2.627875550E-1,-3.463149071E-2,1.080977917E-1,-2.472019196E-1,2.720170247E-1
2.678029720E-1,-1.258170605E-2,1.027021408E-1,-2.080135345E-1,2.323266227E-1
2.728183890E-1,-4.102587700E-4,6.047987938E-2,-1.791906357E-1,1.891223626E-1
2.778338580E-1,-7.240295410E-3,3.096437454E-2,-1.087284088E-1,1.132831905E-1
2.828492740E-1,-2.347967029E-2,4.412913322E-2,-1.607227325E-2,5.250707841E-2
2.878646910E-1,-1.780927181E-3,3.104257584E-2,5.142974854E-2,6.009852120E-2
2.928801600E-1,-2.018541098E-2,-5.684614182E-3,4.964447021E-2,5.389192034E-2
2.978955760E-1,-7.962897420E-3,-2.363824844E-2,8.334159851E-2,8.699423295E-2
3.029109930E-1,-1.477368176E-2,4.905939102E-3,1.566810608E-1,1.574524840E-1
3.079264620E-1,-3.057198226E-2,-1.252293587E-2,2.125310898E-1,2.150835515E-1
3.129418780E-1,3.552183509E-3,-4.706192017E-2,1.923904419E-1,1.980947361E-1
3.179572950E-1,3.927037120E-3,-2.777576447E-2,1.469297409E-1,1.495836337E-1
3.229727640E-1,-2.157551050E-2,-4.267740250E-2,1.872425079E-1,1.932527364E-1
3.279881800E-1,-8.753746748E-3,-1.553535461E-3,1.941518784E-1,1.943553277E-1
3.330035970E-1,1.796799898E-2,-1.585054398E-2,1.469316483E-1,1.488724219E-1
3.380190660E-1,-2.910658717E-3,-3.505086899E-2,6.991863251E-2,7.826653514E-2
3.430344830E-1,4.813671112E-3,1.187753677E-2,5.543518066E-2,5.689733355E-2
3.480499510E-1,1.477140188E-2,3.222107887E-2,2.230072021E-2,4.187737288E-2
3.530653680E-1,1.514795423E-2,4.076814651E-2,-2.691841125E-2,5.114785579E-2
3.580807850E-1,1.193031669E-3,4.246783257E-2,-8.730792999E-2,9.709590500E-2
3.630962530E-1,1.104985178E-2,5.402469635E-2,-1.162748337E-1,1.286880103E-1
3.681116700E-1,2.082982659E-2,8.255577087E-2,-1.048660278E-1,1.350785726E-1
3.731270870E-1,-7.260113955E-3,5.946063995E-2,-1.221275330E-1,1.360272446E-1
3.781425550E-1,1.934317499E-2,5.860757828E-2,-1.865539551E-1,1.964977985E-1
3.831579720E-1,4.313562065E-2,3.942966461E-2,-1.841440201E-1,1.931952389E-1
3.881733890E-1,1.923327893E-2,6.588387489E-2,-1.393957138E-1,1.553762177E-1
3.931888580E-1,9.904116392E-3,6.166172028E-2,-1.095209122E-1,1.260757291E-1
3.982042740E-1,1.485149562E-2,1.998686790E-2,-1.037521362E-1,1.066983954E-1
4.032196910E-1,2.193520963E-2,9.689331055E-3,-8.864879608E-2,9.183488229E-2
4.082351600E-1,7.988855243E-3,4.280805588E-3,-4.538631439E-2,4.628244417E-2
4.132505760E-1,5.917072296E-3,8.195161819E-3,2.101421356E-2,2.331886776E-2
4.182659930E-1,1.088793576E-2,-4.911422729E-5,3.227806091E-2,3.406497870E-2
4.232814620E-1,1.822242141E-2,-2.506470680E-2,2.456569672E-2,3.954452711E-2
4.282968780E-1,2.561540157E-2,-1.946640015E-2,7.145214081E-2,7.836132948E-2
4.333123470E-1,9.134978056E-3,-1.200199127E-2,9.423255920E-2,9.543202205E-2
4.383277640E-1,9.606555104E-3,-1.212859154E-2,9.556102753E-2,9.680546790E-2
4.433431800E-1,1.733264327E-2,-3.392767906E-2,7.094669342E-2,8.052913284E-2
4.483586490E-1,3.679752350E-3,-1.547980309E-2,5.614376068E-2,5.835483480E-2
4.533740660E-1,1.823227108E-2,4.776954651E-3,6.762695312E-2,7.020427190E-2
4.583894830E-1,2.344787866E-2,-1.075720787E-2,4.586696625E-2,5.262413066E-2
4.634049510E-1,7.210001349E-3,-9.607315063E-3,-1.588153839E-2,1.991250572E-2
4.684203680E-1,1.246155798E-2,3.367424011E-3,-2.012538910E-2,2.390943869E-2
4.734357850E-1,-1.559333503E-2,4.537582397E-3,-1.963138580E-2,2.547808980E-2
4.784512530E-1,4.029795527E-3,3.428673744E-2,-3.339195251E-2,4.802959618E-2
4.834666700E-1,2.576217800E-2,2.851152420E-2,-6.366729736E-2,7.436478724E-2
4.884821390E-1,4.728451371E-3,1.367211342E-2,-8.897113800E-2,9.013960470E-2
4.934975550E-1,-1.610121131E-2,3.712749481E-2,-5.721569061E-2,7.008091844E-2
4.985129720E-1,1.075036824E-2,5.115580559E-2,-3.770446777E-2,6.445241464E-2
5.035284410E-1,1.563331485E-2,4.149436951E-2,-5.161190033E-2,6.804389384E-2
5.085438580E-1,-5.507215858E-3,2.017283440E-2,-6.777381897E-2,7.092646341E-2
5.135592740E-1,6.860792637E-3,3.008031845E-2,-3.879261017E-2,4.956574056E-2
5.185747430E-1,1.658107340E-2,3.749084473E-2,-1.483726501E-2,4.359632859E-2
5.235901600E-1,1.665183902E-2,2.346873283E-2,-1.007747650E-2,3.048968180E-2
5.286055760E-1,9.806513786E-3,4.756212234E-3,-1.482677460E-2,1.840169863E-2
5.336210450E-1,1.978996396E-2,7.449388504E-3,-5.331039429E-4,2.115231104E-2
5.386364620E-1,-1.368999481E-3,2.651309967E-2,4.449462891E-2,5.181303519E-2
5.436519300E-1,1.798728108E-2,1.202511787E-2,3.459739685E-2,4.080595066E-2
5.486673470E-1,3.013580292E-2,-9.557485580E-3,3.193759918E-2,4.493909645E-2
5.536827640E-1,3.023698181E-2,4.434585571E-3,1.986503601E-2,3.644942076E-2
5.586982330E-1,2.574676275E-2,2.770042419E-2,3.402042389E-2,5.086844340E-2
5.637136490E-1,3.305225074E-2,2.923345566E-2,2.673721313E-2,5.159384435E-2
5.687290660E-1,2.143006027E-2,7.000446320E-3,-6.567001343E-3,2.348146585E-2
5.737445350E-1,1.227055490E-2,1.587057114E-2,-1.111698151E-2,2.293531826E-2
5.787599510E-1,3.400075436E-2,1.991486549E-2,-1.388549805E-3,3.942817819E-2
5.837753680E-1,3.647815436E-2,2.401256561E-2,-1.312541962E-2,4.560192642E-2
5.887908370E-1,2.478174865E-2,9.294509888E-3,-3.667449951E-2,4.522766736E-2
5.938062530E-1,1.068088412E-2,1.849365234E-2,-6.003761292E-2,6.372292701E-2
5.988217220E-1,2.288927138E-2,2.304291725E-2,-4.763984680E-2,5.765804179E-2
6.038371390E-1,2.078859508E-2,1.345777512E-2,-2.588844299E-2,3.582581300E-2
6.088525550E-1,1.858253777E-2,6.444931030E-3,-4.233455658E-2,4.668042980E-2
6.138680240E-1,4.031334817E-2,-4.239082336E-4,-5.154037476E-2,6.543512794E-2
6.188834410E-1,3.337996453E-2,-2.458333969E-3,-2.506446838E-2,4.181498551E-2
6.238988580E-1,7.424384356E-3,-2.188205719E-3,-1.066112518E-2,1.317457087E-2
6.289143260E-1,2.939945459E-2,-6.755113602E-3,-1.059913635E-2,3.197344494E-2
6.339297430E-1,3.179118037E-2,-6.620883942E-3,-1.052474976E-2,3.413627998E-2
6.389452120E-1,2.015158534E-2,-6.489515305E-3,1.566886902E-2,2.633844447E-2
6.439606280E-1,3.232611716E-2,5.398273468E-3,1.318073273E-2,3.532493343E-2
6.489760450E-1,3.246603906E-2,-1.150751114E-2,2.263069153E-2,4.121425365E-2
6.539915140E-1,2.551797032E-2,-1.402783394E-2,1.137733459E-3,2.914174620E-2
6.590069300E-1,1.867681742E-2,-1.420879364E-2,-3.541946411E-3,2.373307207E-2
6.640223470E-1,1.020133495E-4,-9.727001190E-3,1.557826996E-2,1.836593188E-2
6.690378160E-1,1.962602139E-2,-5.283832550E-3,1.317310333E-2,2.422045114E-2
6.740532330E-1,1.509454846E-2,3.899335861E-3,-5.842208862E-3,1.664877226E-2
6.790687010E-1,3.692165017E-3,-3.552675247E-3,-1.521110535E-2,1.605089748E-2
6.840841180E-1,8.763596416E-3,5.649566650E-3,-1.737689972E-2,2.026511459E-2
6.890995350E-1,2.605709434E-2,1.723289490E-2,-1.004219055E-2,3.281448495E-2
6.941150030E-1,2.642732859E-2,9.553909302E-3,-2.729415894E-3,2.823350120E-2
6.991304200E-1,3.143586218E-2,-7.790565491E-3,4.572868347E-3,3.270806425E-2
7.041458370E-1,2.458767593E-2,-1.362562180E-3,3.320980072E-2,4.134369658E-2
7.091613050E-1,1.054503024E-2,1.911067963E-2,2.840137482E-2,3.581974079E-2
7.141767220E-1,2.287960052E-2,2.053594589E-2,1.886081696E-2,3.606842955E-2
7.191921910E-1,4.467929155E-2,2.195048332E-2,-1.908779144E-2,5.331422506E-2
7.242076080E-1,2.557627857E-2,6.877660751E-3,-1.402664185E-2,2.996990030E-2
7.292230240E-1,3.547598422E-2,2.282428741E-2,-3.037452698E-2,5.198177990E-2
7.342384930E-1,3.327985108E-2,2.705335617E-3,8.091926575E-3,3.435617273E-2
7.392539100E-1,4.770557582E-2,-3.260135651E-3,2.967643738E-2,5.627736121E-2
7.442693260E-1,1.226289570E-2,-1.461911201E-2,7.973575592E-2,8.198711984E-2
7.492847950E-1,3.185008466E-2,-3.613042831E-2,1.414260864E-1,1.494027231E-1
7.543002120E-1,5.140519142E-2,-4.877686501E-2,1.814279556E-1,1.947762289E-1
7.593156800E-1,5.166634917E-2,-4.504561424E-2,1.333322525E-1,1.499200072E-1
7.643310970E-1,5.899854004E-2,-1.751899719E-2,7.374763489E-2,9.605444623E-2
7.693465140E-1,3.777299821E-2,1.970839500E-2,-5.191898346E-2,6.716249751E-2
7.743619830E-1,5.469023436E-2,3.595113754E-2,-9.835052490E-2,1.181369196E-1
7.793773990E-1,3.814829886E-2,5.793499947E-2,-1.897697449E-1,2.020502733E-1
7.843928160E-1,4.520328343E-2,9.748315811E-2,-2.688274384E-1,2.895073308E-1
7.894082850E-1,5.236768723E-2,8.559513092E-2,-2.928819656E-1,3.095944878E-1
7.944237010E-1,3.312720358E-2,9.890341759E-2,-2.695779800E-1,2.890529103E-1
7.994391700E-1,3.523430228E-2,1.017315388E-1,-2.753124237E-1,2.956140942E-1
8.044545870E-1,-9.376257658E-4,1.308195591E-1,-3.623199463E-1,3.852147189E-1
8.094700030E-1,2.238801122E-2,2.266490459E-1,-6.326379776E-1,6.723851752E-1
8.144854720E-1,-2.185811102E-2,4.265835285E-1,-1.234844208E0,1.306633652E0
8.195008890E-1,1.470749080E-2,5.882177353E-1,-1.736614227E0,1.833588119E0
8.245163050E-1,7.274448872E-4,5.578057766E-1,-1.886587143E0,1.967322765E0
8.295317740E-1,1.286065578E-2,3.980681896E-1,-1.368829727E0,1.425594087E0
8.345471910E-1,1.302424073E-2,1.992309093E-1,-5.608463287E-1,5.953244414E-1
8.395626600E-1,1.349177957E-2,-2.661705017E-2,1.793756485E-1,1.818409161E-1
8.445780760E-1,4.708638787E-2,-2.002701759E-1,6.651859283E-1,6.962740772E-1
8.495934930E-1,3.362214565E-2,-3.442542553E-1,9.676847458E-1,1.027645468E0
8.546089620E-1,4.654033482E-2,-3.886733055E-1,1.181163788E0,1.244339518E0
8.596243780E-1,7.184692472E-2,-3.989653587E-1,1.377654076E0,1.436059222E0
8.646397950E-1,4.284182191E-2,-4.808238745E-1,1.517094612E0,1.592043681E0
8.696552640E-1,5.721989274E-2,-5.539404154E-1,1.702230453E0,1.791008827E0
8.746706800E-1,6.048078090E-2,-6.303086281E-1,1.920824051E0,2.022501403E0
8.796861490E-1,5.250392854E-2,-6.243394613E-1,1.982661247E0,2.079303260E0
8.847015660E-1,5.919758230E-2,-6.052074432E-1,1.877139091E0,1.973178039E0
8.897169830E-1,5.698958039E-2,-6.083838940E-1,1.736247063E0,1.840633760E0
8.947324510E-1,7.455063611E-2,-6.305208206E-1,1.655163765E0,1.772760952E0
8.997478680E-1,4.734963179E-2,-5.664402246E-1,1.536011696E0,1.637812091E0
9.047632850E-1,6.090031564E-2,-5.180633068E-1,1.379011154E0,1.474371121E0
9.097787530E-1,7.712595910E-2,-5.125323534E-1,1.103575706E0,1.219228103E0
9.147941700E-1,6.991247833E-2,-4.822887182E-1,7.747154236E-1,9.152454042E-1
9.198096390E-1,7.719665766E-2,-4.515359402E-1,6.921567917E-1,8.300150923E-1
9.248250550E-1,6.331279874E-2,-4.854081869E-1,7.995939255E-1,9.375393667E-1
9.298404720E-1,5.959770083E-2,-5.933641195E-1,1.024471283E0,1.185400470E0
9.348559410E-1,1.035883054E-1,-6.579747200E-1,1.054793358E0,1.247497614E0
9.398713580E-1,8.123706281E-2,-6.077883244E-1,8.945302963E-1,1.084523194E0
9.448868260E-1,9.016161412E-2,-5.978376865E-1,8.349828720E-1,1.030890592E0
9.499022430E-1,7.810361683E-2,-6.389768124E-1,7.992753983E-1,1.026271262E0
9.549176600E-1,9.728012979E-2,-5.813734531E-1,6.449241638E-1,8.737194588E-1
9.599331280E-1,8.554433286E-2,-6.013081074E-1,6.697521210E-1,9.041333842E-1
9.649485450E-1,6.951667368E-2,-6.161394119E-1,7.042026520E-1,9.382759284E-1
9.699639620E-1,7.997806370E-2,-7.049038410E-1,9.907569885E-1,1.218558709E0
9.749794300E-1,8.378323913E-2,-7.918946743E-1,1.073526382E0,1.336628482E0
9.799948470E-1,1.115076095E-1,-7.189402580E-1,5.739383698E-1,9.266683840E-1
9.850103160E-1,8.433517814E-2,-6.446020603E-1,3.613739014E-1,7.437844681E-1
9.900257330E-1,1.100436449E-1,-6.904466152E-1,5.762577057E-1,9.060348093E-1
9.950411490E-1,1.049040109E-1,-7.020108700E-1,6.400108337E-1,9.557394940E-1
1.000056618E0,7.372456789E-2,-7.304928303E-1,2.091703415E-1,7.634181808E-1
1.005072035E0,9.992125630E-2,-6.162559986E-1,-9.276771545E-2,6.311589042E-1
1.010087503E0,7.864925265E-2,-5.941185951E-1,4.057502747E-2,6.006737408E-1
1.015102920E0,7.168987393E-2,-6.494975090E-1,2.641649246E-1,7.048188133E-1
1.020118337E0,7.190459967E-2,-7.060508728E-1,1.644887924E-1,7.285153871E-1
1.025133805E0,9.590375423E-2,-5.811100006E-1,-4.435119629E-1,7.372850359E-1
1.030149222E0,7.174801826E-2,-4.611854553E-1,-6.975278854E-1,8.392764463E-1
1.035164639E0,5.927398801E-2,-3.495287895E-1,-5.893583298E-1,6.877695989E-1
1.040180108E0,6.118398905E-2,-3.821945190E-1,-3.779230118E-1,5.409638932E-1
1.045195524E0,7.985347509E-2,-4.598441124E-1,-3.488082886E-1,5.826666349E-1
1.050210993E0,1.128126085E-1,-5.761566162E-1,8.564758301E-2,5.933115872E-1
1.055226410E0,7.664158940E-2,-6.274051666E-1,2.343502045E-1,6.741151197E-1
1.060241826E0,1.287865043E-1,-5.715990067E-1,-9.841918945E-4,5.859286277E-1
1.065257295E0,9.260782599E-2,-6.698212624E-1,2.494554520E-1,7.207390342E-1
1.070272712E0,1.066854894E-1,-7.591662407E-1,3.686571121E-1,8.506604734E-1
1.075288128E0,1.067145467E-1,-7.998909950E-1,4.079608917E-1,9.042376278E-1
1.080303597E0,9.488171339E-2,-8.587207794E-1,6.036782265E-1,1.053959827E0
1.085319014E0,1.380617619E-1,-8.914523125E-1,5.063691139E-1,1.034484391E0
1.090334430E0,1.833892167E-1,-7.846159935E-1,1.281852722E-1,8.158954137E-1
1.095349899E0,8.318728209E-2,-6.711277962E-1,-2.540535927E-1,7.224097664E-1
1.100365316E0,1.216576695E-1,-5.713882446E-1,-4.486303329E-1,7.365828469E-1
1.105380785E0,1.216995120E-1,-7.239165306E-1,1.066446304E-2,7.341523311E-1
1.110396201E0,1.673220098E-1,-9.959859848E-1,8.463835716E-1,1.317706298E0
1.115411618E0,1.366897225E-1,-1.168181419E0,1.383155346E0,1.815613015E0
1.120427087E0,1.477936506E-1,-1.213531017E0,1.407278538E0,1.864117318E0
1.125442503E0,3.753961623E-1,-1.307215691E0,1.200946808E0,1.814389257E0
1.130457972E0,2.948938906E-1,-1.374988556E0,1.299618721E0,1.914827605E0
1.135473389E0,5.776381493E-2,-1.386406898E0,1.684043407E0,2.182077667E0
1.140488805E0,2.365136147E-1,-1.545400143E0,1.601538181E0,2.238107423E0
1.145504274E0,1.625834107E-1,-1.795008659E0,1.461306095E0,2.320324321E0
1.150519691E0,2.462153435E-1,-1.988000870E0,1.963599205E0,2.805083117E0
1.155535108E0,2.366877496E-1,-1.932938099E0,1.532106876E0,2.477826117E0
1.160550576E0,2.201361358E-1,-1.880652428E0,1.255799770E0,2.272079782E0
1.165565993E0,2.752616405E-1,-2.072470665E0,1.510265350E0,2.579109353E0
1.170581462E0,2.014523745E-1,-2.357299805E0,1.752463341E0,2.944244078E0
1.175596878E0,2.377833128E-1,-2.360916615E0,1.061770916E0,2.599581821E0
1.180612295E0,3.120079041E-1,-2.370825768E0,1.885389805E0,3.045136855E0
1.185627764E0,2.403934598E-1,-2.549787521E0,2.091699600E0,3.306722341E0
1.190643180E0,2.834146023E-1,-2.809247494E0,1.481033802E0,3.188362658E0
1.195658597E0,3.355598748E-1,-2.786879539E0,1.158542633E0,3.036695413E0
1.200674066E0,2.916252315E-1,-2.740254879E0,1.962339878E0,3.383019343E0
1.205689483E0,2.859072089E-1,-2.921176910E0,1.564299822E0,3.325966237E0
1.210704951E0,3.076103926E-1,-2.941896915E0,4.763031006E-2,2.958318823E0
1.215720368E0,2.431531549E-1,-2.749512672E0,5.992360115E-1,2.824540173E0
1.220735785E0,3.096740544E-1,-3.020482063E0,1.764314651E0,3.511697040E0
1.225751253E0,3.868637085E-1,-3.599008083E0,1.254317760E0,3.830905344E0
1.230766670E0,3.559677899E-1,-3.694065571E0,9.977248907E-1,3.842953092E0
1.235782087E0,3.836007714E-1,-3.554264545E0,1.719897509E0,3.967113995E0
1.240797555E0,4.030012786E-1,-3.698967934E0,1.101559162E0,3.880490483E0
1.245812972E0,4.883152246E-1,-4.059267044E0,1.016942739E0,4.213107313E0
1.250828441E0,2.858763933E-1,-4.334941864E0,1.577079535E0,4.621755742E0
1.255843858E0,3.599790633E-1,-4.224830151E0,1.140786409E0,4.390918851E0
1.260859274E0,6.254684925E-1,-4.099534035E0,-7.616353035E-2,4.147672964E0
1.265874743E0,4.876208603E-1,-3.955987453E0,-3.911991119E-1,4.005077725E0
1.270890160E0,2.993199825E-1,-4.107845306E0,2.898231745E-1,4.128920317E0
1.275905576E0,6.588709354E-1,-4.519926548E0,6.019511223E-1,4.607189172E0
1.280921045E0,5.956286788E-1,-4.671401501E0,4.590866566E-1,4.731545843E0
1.285936462E0,4.120005369E-1,-4.396490574E0,-2.660858631E-1,4.423762595E0
1.290951930E0,3.920486867E-1,-4.123112679E0,-7.722091675E-1,4.213082877E0
1.295967347E0,5.303203464E-1,-4.337238789E0,-3.857748508E-1,4.386536471E0
1.300982764E0,6.593380570E-1,-4.671229362E0,-3.240294456E-1,4.728647324E0
1.305998233E0,4.782846570E-1,-4.436083794E0,-1.152437210E0,4.608221692E0
1.311013649E0,3.707280159E-1,-4.048964977E0,-1.503112316E0,4.334847550E0
1.316029118E0,4.724889696E-1,-3.907346964E0,-2.287148952E0,4.552104618E0
1.321044535E0,5.821837187E-1,-3.870943546E0,-2.223290920E0,4.501795679E0
1.326059951E0,4.352228642E-1,-3.777136326E0,-2.081672192E0,4.334689940E0
1.331075420E0,4.831565619E-1,-3.628664255E0,-2.003102779E0,4.172896510E0
1.336090837E0,5.063939095E-1,-3.343776941E0,-2.753556252E0,4.361118097E0
1.341106253E0,4.402281940E-1,-3.104387522E0,-3.229082108E0,4.500888135E0
1.346121722E0,5.310738087E-1,-3.193492651E0,-2.265612125E0,3.951383682E0
1.351137139E0,4.489265382E-1,-3.274777889E0,-1.521895885E0,3.638938354E0
1.356152608E0,4.666158259E-1,-3.197431564E0,-1.794599533E0,3.696198915E0
1.361168024E0,5.313633680E-1,-2.973139524E0,-2.330649853E0,3.814948807E0
1.366183441E0,3.492144346E-1,-2.704350710E0,-2.811413765E0,3.916568759E0
1.371198910E0,3.704318106E-1,-2.893677235E0,-1.863748550E0,3.461812578E0
1.376214326E0,5.218188167E-1,-2.863066912E0,-1.807836533E0,3.426035602E0
1.381229743E0,4.480736554E-1,-2.946183920E0,-1.421993256E0,3.301944050E0
1.386245212E0,3.382484019E-1,-2.887357950E0,-1.694748878E0,3.365029224E0
1.391260628E0,3.405055106E-1,-2.877562761E0,-1.419697762E0,3.226740334E0
1.396276097E0,7.001507282E-1,-2.713110447E0,-1.861576080E0,3.364022123E0
1.401291514E0,3.452970982E-1,-2.416002035E0,-2.335467339E0,3.377973299E0
1.406306930E0,1.877544820E-1,-2.296096087E0,-3.060183525E0,3.830408880E0
1.411322399E0,3.575744629E-1,-2.118914127E0,-3.170315742E0,3.829955415E0
1.416337816E0,4.841061831E-1,-1.917152405E0,-2.862730026E0,3.479232005E0
1.421353285E0,3.644684553E-1,-1.973976731E0,-2.209922791E0,2.985494956E0
1.426368701E0,2.457387745E-1,-1.807868123E0,-2.834654808E0,3.371059563E0
1.431384118E0,3.378780484E-1,-1.728850961E0,-2.932858467E0,3.421219959E0
1.436399587E0,4.160953760E-1,-1.608261585E0,-3.099518776E0,3.516625845E0
1.441415003E0,1.294590235E-1,-1.365706205E0,-2.868272781E0,3.179449925E0
1.446430420E0,3.620841503E-1,-1.250627518E0,-2.993422508E0,3.264315002E0
1.451445889E0,3.222010732E-1,-1.249124408E0,-3.014943123E0,3.279330321E0
1.456461305E0,2.593642771E-1,-1.195576549E0,-2.763193130E0,3.021904927E0
1.461476722E0,2.804322839E-1,-1.107446909E0,-2.296089172E0,2.564586986E0
1.466492191E0,3.782579005E-1,-1.059111834E0,-1.782752037E0,2.107842912E0
1.471507608E0,3.452498615E-1,-9.652919769E-1,-2.436917305E0,2.643776091E0
1.476523076E0,1.292315125E-1,-8.719625473E-1,-2.481032372E0,2.632971913E0
1.481538493E0,2.867488861E-1,-7.595024109E-1,-2.744536400E0,2.862088204E0
1.486553910E0,1.484317183E-1,-6.672389507E-1,-2.250606537E0,2.352120230E0
1.491569378E0,3.047454357E-1,-6.550638676E-1,-2.019982338E0,2.145298836E0
1.496584795E0,3.798416555E-1,-6.649150848E-1,-2.141185760E0,2.273998288E0
1.501600264E0,1.577709168E-1,-3.662090302E-1,-2.773115158E0,2.801636735E0
1.506615680E0,1.350238472E-1,-8.028769493E-2,-3.333023071E0,3.336722995E0
1.511631097E0,2.830609083E-1,1.308679581E-1,-3.490880013E0,3.504781471E0
1.516646566E0,1.926976442E-1,1.597056389E-1,-3.453267097E0,3.462324641E0
1.521661983E0,1.323468536E-1,1.173014641E-1,-3.074885368E0,3.079966778E0
1.526677399E0,1.899487823E-1,2.361483574E-1,-2.789643288E0,2.806057066E0
1.531692868E0,2.249086052E-1,5.011138916E-1,-3.296559334E0,3.342005753E0
1.536708285E0,9.617850184E-2,7.497749329E-1,-3.883665085E0,3.956547390E0
1.541723701E0,5.486719310E-2,7.697305679E-1,-3.872225761E0,3.948370284E0
1.546739170E0,1.917266101E-1,8.961391449E-1,-3.850769043E0,3.958313616E0
1.551754587E0,1.526603550E-1,9.842548370E-1,-3.652462959E0,3.785835236E0
1.556770055E0,4.054555297E-2,9.492092133E-1,-3.390198708E0,3.520808053E0
1.561785472E0,9.439480305E-2,8.495340347E-1,-3.207584381E0,3.319520450E0
1.566800889E0,1.871559620E-1,7.575311661E-1,-2.975598335E0,3.076209725E0
1.571816358E0,9.437364340E-2,7.901792526E-1,-2.854195595E0,2.963059589E0
1.576831774E0,6.966605783E-2,8.184280396E-1,-2.788189888E0,2.906661430E0
1.581847243E0,1.748381853E-1,7.396025658E-1,-2.745410919E0,2.848659590E0
1.586862660E0,6.969329715E-2,3.535666466E-1,-1.805191040E0,1.840809936E0
1.591878076E0,1.917745173E-1,1.579456329E-1,-9.704847336E-1,1.001780868E0
1.596893545E0,1.682702303E-1,1.645236015E-1,-7.925262451E-1,8.267289369E-1
1.601908962E0,1.093585193E-1,1.339387894E-1,-7.608947754E-1,7.802946522E-1
1.606924378E0,1.964214444E-1,9.114265442E-3,-7.391872406E-1,7.648936072E-1
1.611939847E0,1.308454275E-1,4.602193832E-2,-7.132778168E-1,7.266386919E-1
1.616955264E0,1.874078810E-1,8.895874023E-2,-5.590829849E-1,5.963297371E-1
1.621970680E0,9.821233153E-2,6.838798523E-2,-5.752086639E-1,5.875266680E-1
1.626986149E0,1.410699487E-1,3.542423248E-3,-6.990833282E-1,7.131835521E-1
1.632001566E0,2.293458879E-1,-2.894163132E-2,-6.942462921E-1,7.317206218E-1
1.637016983E0,9.809774160E-2,4.404067993E-3,-6.137523651E-1,6.215581456E-1
1.642032451E0,1.369115412E-1,1.726150513E-2,-5.675916672E-1,5.841258686E-1
1.647047868E0,2.187908739E-1,-9.041786194E-2,-6.321849823E-1,6.750575443E-1
1.652063337E0,1.669853181E-1,-1.462693214E-1,-6.498279572E-1,6.866987584E-1
1.657078753E0,1.369771659E-1,-1.172299385E-1,-5.824556351E-1,6.097213866E-1
1.662094170E0,1.649731547E-1,-7.782220840E-2,-5.615358353E-1,5.904192851E-1
1.667109639E0,2.312591970E-1,-1.262531281E-1,-6.680335999E-1,7.181152826E-1
1.672125055E0,1.281091273E-1,-1.827230453E-1,-7.874956131E-1,8.185041237E-1
1.677140472E0,1.543398798E-1,-2.647733688E-1,-5.459861755E-1,6.261203073E-1
1.682155941E0,2.212056369E-1,-3.155875206E-1,-5.187988281E-3,3.854274668E-1
1.687171358E0,1.542078555E-1,-4.016671181E-1,3.158597946E-1,5.337452073E-1
1.692186826E0,1.898571998E-1,-4.918003082E-1,3.485860825E-1,6.320012313E-1
1.697202243E0,1.990672797E-1,-4.956459999E-1,3.208065033E-1,6.230646448E-1
1.702217660E0,1.914815009E-1,-4.132826328E-1,3.328828812E-1,5.641619558E-1
1.707233128E0,1.646687835E-1,-4.056327343E-1,3.802576065E-1,5.798703051E-1
1.712248545E0,1.740926951E-1,-3.828465939E-1,9.090805054E-2,4.302836908E-1
1.717263962E0,2.241623551E-1,-3.244245052E-1,-1.948804855E-1,4.398618245E-1
1.722279430E0,1.548916996E-1,-2.708766460E-1,-3.173227310E-1,4.450385507E-1
1.727294847E0,1.386229396E-1,-2.790489197E-1,-3.105516434E-1,4.399169719E-1
1.732310316E0,2.370651364E-1,-3.863461018E-1,-1.752281189E-1,4.859712779E-1
1.737325733E0,1.825439483E-1,-4.300711155E-1,-1.194601059E-1,4.822387110E-1
1.742341149E0,1.524046808E-1,-4.032452106E-1,-6.426429749E-2,4.358483527E-1
1.747356566E0,1.865307391E-1,-4.240438938E-1,1.132106781E-2,4.633951954E-1
1.752372035E0,1.652947813E-1,-5.287103653E-1,3.167066574E-1,6.380909982E-1
1.757387451E0,1.847982556E-1,-6.513125896E-1,6.384429932E-1,9.305739843E-1
1.762402920E0,2.325011343E-1,-7.011299133E-1,9.049797058E-1,1.168173018E0
1.767418337E0,2.177668810E-1,-6.416602135E-1,1.044672012E0,1.245186676E0
1.772433805E0,1.405489743E-1,-6.522543430E-1,1.134375572E0,1.316053829E0
1.777449222E0,2.136814892E-1,-7.019677162E-1,1.047899246E0,1.279262007E0
1.782464639E0,2.527438402E-1,-6.471354961E-1,9.910383224E-1,1.210297796E0
1.787480108E0,1.050859615E-1,-6.029717922E-1,1.090415001E0,1.250449086E0
1.792495524E0,1.894029230E-1,-5.506722927E-1,1.018693924E0,1.173392838E0
1.797510941E0,2.325151861E-1,-5.385727882E-1,8.696718216E-1,1.049024803E0
1.802526410E0,1.632440090E-1,-5.260214806E-1,7.248029709E-1,9.103222238E-1
1.807541826E0,1.609444022E-1,-4.939098358E-1,7.225818634E-1,8.899295342E-1
1.812557243E0,1.844975948E-1,-4.637997150E-1,7.838716507E-1,9.293031276E-1
1.817572712E0,1.980359703E-1,-4.599573612E-1,6.985416412E-1,8.594995313E-1
1.822588128E0,1.782167554E-1,-4.539141655E-1,6.055717468E-1,7.775065415E-1
1.827603545E0,1.775904000E-1,-3.958261013E-1,5.599899292E-1,7.083822227E-1
1.832619014E0,1.863129437E-1,-3.382985592E-1,5.592823029E-1,6.796728054E-1
1.837634430E0,1.540964842E-1,-3.436622620E-1,5.102939606E-1,6.342313481E-1
1.842649847E0,1.672741026E-1,-3.825941086E-1,4.918422699E-1,6.451881088E-1
1.847665316E0,1.897704303E-1,-3.710258007E-1,5.730047226E-1,7.085247865E-1
1.852680733E0,1.762761027E-1,-3.541007042E-1,7.271852493E-1,8.278036965E-1
1.857696149E0,1.599188745E-1,-3.770754337E-1,7.822694778E-1,8.830093233E-1
1.862711618E0,1.650248468E-1,-4.204764366E-1,7.504281998E-1,8.758859040E-1
1.867727035E0,1.795084774E-1,-4.224593639E-1,7.704591751E-1,8.968291633E-1
1.872742503E0,1.362183392E-1,-3.639154434E-1,8.111648560E-1,8.994322150E-1
1.877757920E0,1.789742410E-1,-3.765046597E-1,7.651014328E-1,8.713023242E-1
1.882773337E0,1.830467880E-1,-3.790292740E-1,6.898450851E-1,8.081185301E-1
1.887788805E0,1.392454505E-1,-3.499691486E-1,6.427698135E-1,7.449971367E-1
1.892804222E0,1.620689929E-1,-3.302352428E-1,6.763830185E-1,7.699452330E-1
1.897819639E0,1.634066999E-1,-2.841613293E-1,6.424732208E-1,7.212636481E-1
1.902835108E0,1.261982322E-1,-2.744591236E-1,5.604391098E-1,6.366677313E-1
1.907850524E0,1.582692862E-1,-2.605566978E-1,4.758033752E-1,5.650909764E-1
1.912865941E0,1.687738299E-1,-2.211806774E-1,4.435329437E-1,5.235713609E-1
1.917881410E0,1.382952332E-1,-1.803359985E-1,4.324522018E-1,4.885299896E-1
1.922896826E0,1.054072008E-1,-1.838045120E-1,3.590288162E-1,4.168890350E-1
1.927912295E0,1.635136306E-1,-1.886088848E-1,2.926931381E-1,3.846807663E-1
1.932927712E0,1.735435724E-1,-1.377854347E-1,2.502193451E-1,3.342333290E-1
1.937943128E0,1.070790514E-1,-9.889578819E-2,1.958618164E-1,2.441478063E-1
1.942958597E0,1.173322201E-1,-8.905982971E-2,6.050872803E-2,1.592476352E-1
1.947974014E0,1.539285779E-1,-8.248877525E-2,-8.624744415E-2,1.947742970E-1
1.952989430E0,1.329321861E-1,-3.182077408E-2,-1.678638458E-1,2.164758613E-1
1.958004899E0,1.004155874E-1,2.900600433E-3,-2.250328064E-1,2.464375532E-1
1.963020316E0,1.348168552E-1,1.429080963E-2,-3.079032898E-1,3.364286664E-1
1.968035733E0,1.406647861E-1,-5.016565323E-3,-4.043912888E-1,4.281869480E-1
1.973051201E0,1.012364626E-1,1.434278488E-2,-4.308929443E-1,4.428580657E-1
1.978066618E0,1.026580706E-1,5.298852921E-2,-4.018640518E-1,4.181401438E-1
1.983082087E0,1.471045613E-1,4.884386063E-2,-3.723869324E-1,4.033577842E-1
1.988097503E0,1.035848185E-1,2.840137482E-2,-4.188976288E-1,4.324484664E-1
1.993112920E0,1.129239649E-1,-5.647897720E-3,-4.099378586E-1,4.252443633E-1
1.998128389E0,1.650721431E-1,-7.693290710E-3,-3.074932098E-1,3.490846219E-1
2.003143805E0,9.763555229E-2,-1.328969002E-2,-2.193470001E-1,2.404629356E-1
2.008159222E0,1.309161484E-1,-3.640508652E-2,-1.789846420E-1,2.247217620E-1
2.013174691E0,1.953053325E-1,-9.345388412E-2,-1.314239502E-1,2.532786135E-1
2.018190108E0,1.161601841E-1,-9.083247185E-2,-5.290126801E-2,1.566597283E-1
2.023205524E0,9.460082650E-2,-1.096534729E-1,4.451179504E-2,1.515074269E-1
2.028220993E0,1.423598975E-1,-1.567690372E-1,5.562686920E-2,2.189457011E-1
2.033236410E0,1.227892786E-1,-1.769435406E-1,8.567619324E-2,2.317900636E-1
2.038251826E0,1.011565626E-1,-1.674191952E-1,1.655578613E-1,2.562640094E-1
2.043267295E0,1.175780296E-1,-1.856164932E-1,2.688846588E-1,3.472420415E-1
2.048282712E0,1.457839459E-1,-2.096798420E-1,3.047819138E-1,3.976312487E-1
2.053298128E0,1.283196807E-1,-2.156546116E-1,2.996683121E-1,3.908630824E-1
2.058313597E0,1.061004400E-1,-2.154970169E-1,3.420076370E-1,4.179300078E-1
2.063329014E0,1.459572613E-1,-2.045032978E-1,3.863182068E-1,4.608328090E-1
2.068344430E0,1.210889667E-1,-1.804869175E-1,3.418846130E-1,4.051211595E-1
2.073359899E0,9.877268970E-2,-1.795976162E-1,2.830333710E-1,3.494556296E-1
2.078375316E0,1.265337318E-1,-1.780395508E-1,2.241601944E-1,3.129802864E-1
2.083390785E0,1.064843833E-1,-1.260123253E-1,1.772918701E-1,2.421785235E-1
2.088406201E0,9.838949144E-2,-9.316039085E-2,1.281337738E-1,1.864875718E-1
2.093421618E0,1.116711199E-1,-1.083595753E-1,5.048084259E-2,1.635865277E-1
2.098437087E0,1.202982515E-1,-8.801960945E-2,-2.212905884E-2,1.506944465E-1
2.103452503E0,9.551918507E-2,-5.864143372E-2,-4.190731049E-2,1.196618366E-1
2.108467920E0,9.247781336E-2,-4.663634300E-2,-6.149101257E-2,1.204501518E-1
2.113483389E0,1.228160858E-1,-4.980754852E-2,-1.023235321E-1,1.674356236E-1
2.118498805E0,1.244728714E-1,-4.414558411E-2,-1.381006241E-1,1.910866575E-1
2.123514222E0,9.970085323E-2,-5.122661591E-2,-1.306123734E-1,1.721162932E-1
2.128529691E0,1.086153984E-1,-3.740715981E-2,-1.134319305E-1,1.614416404E-1
2.133545108E0,1.293422431E-1,-5.047607422E-2,-8.182239532E-2,1.611587860E-1
2.138560524E0,9.759160876E-2,-6.138825417E-2,-5.738544464E-2,1.287855936E-1
2.143575993E0,1.066514701E-1,-6.525683403E-2,-2.102470398E-2,1.267873362E-1
2.148591410E0,1.253392845E-1,-1.073899269E-1,2.242946625E-2,1.665701462E-1
2.153606826E0,8.402395248E-2,-9.679174423E-2,6.814670563E-2,1.451641823E-1
2.158622295E0,9.078669548E-2,-1.241703033E-1,5.159378052E-2,1.622418149E-1
2.163637712E0,1.213030517E-1,-1.464772224E-1,8.517837524E-2,2.083875300E-1
2.168653128E0,1.159647107E-1,-1.372146606E-1,1.090173721E-1,2.101439141E-1
2.173668597E0,9.578563273E-2,-1.291713715E-1,1.437711716E-1,2.157087861E-1
2.178684014E0,1.279626787E-1,-1.516542435E-1,1.282796860E-1,2.362818963E-1
2.183699430E0,9.097057581E-2,-1.382498741E-1,1.128940582E-1,2.003340753E-1
2.188714899E0,7.582759857E-2,-5.793046951E-2,5.772972107E-2,1.115279548E-1
2.193730316E0,9.670606256E-2,1.255946159E-1,-3.731451035E-1,4.054174864E-1
2.198745733E0,1.439103037E-1,2.106127739E-1,-1.249863625E0,1.275628079E0
2.203761201E0,4.188202322E-2,2.423317432E-1,-1.623657227E0,1.642175864E0
2.208776618E0,7.654890418E-2,3.705506325E-1,-1.510603905E0,1.557270581E0
2.213792035E0,6.641772389E-2,4.203310013E-1,-1.510564804E0,1.569361492E0
2.218807503E0,1.283770949E-1,3.414313793E-1,-1.833774567E0,1.869701908E0
2.223822920E0,1.027248651E-1,3.054647446E-1,-2.133362770E0,2.157567569E0
2.228838389E0,3.533725441E-2,3.598173857E-1,-2.068659782E0,2.100016802E0
2.233853805E0,5.459849536E-2,2.975851297E-1,-1.847503662E0,1.872113161E0
2.238869222E0,6.730824709E-2,1.963790655E-1,-1.826554298E0,1.838313287E0
2.243884691E0,4.968390614E-2,1.998817921E-2,-1.676286697E0,1.677141947E0
2.248900108E0,1.350484937E-1,-1.244270802E-1,-1.206398010E0,1.220293552E0
2.253915524E0,5.769054592E-2,-2.300426960E-1,-6.354436874E-1,6.782599214E-1
2.258930993E0,9.789533168E-2,-3.759998083E-1,-1.694641113E-1,4.238837539E-1
2.263946410E0,2.020358443E-1,-5.370360613E-1,1.509885788E-1,5.933159061E-1
2.268961826E0,1.242574677E-1,-5.981943607E-1,4.026975632E-1,7.317388461E-1
2.273977295E0,1.014797837E-1,-5.478557348E-1,5.500488281E-1,7.829417386E-1
2.278992712E0,1.696476042E-1,-5.411268473E-1,5.311622620E-1,7.770018809E-1
2.284008128E0,1.272472292E-1,-5.851551294E-1,4.730749130E-1,7.631502186E-1
2.289023597E0,6.554064155E-2,-6.110610962E-1,4.898996353E-1,7.859344067E-1
2.294039014E0,1.226918846E-1,-5.935477614E-1,6.195755005E-1,8.667329718E-1
2.299054430E0,1.554079950E-1,-5.591051579E-1,7.401523590E-1,9.405188658E-1
2.304069899E0,8.818480372E-2,-5.356856585E-1,6.073646545E-1,8.146333579E-1
2.309085316E0,1.305093318E-1,-4.155493379E-1,2.068347931E-1,4.821769069E-1
2.314100733E0,7.312108576E-2,-3.345795274E-1,-1.623229980E-1,3.789972414E-1
2.319116201E0,8.578590304E-2,-2.341141105E-1,-6.539497375E-1,6.998706288E-1
2.324131618E0,3.175564110E-2,-8.862233162E-2,-9.396142960E-1,9.443184651E-1
2.329147035E0,8.352396637E-2,-1.250040829E-1,-1.043799400E0,1.054570748E0
2.334162503E0,8.271048963E-2,-1.979273111E-1,-9.837961197E-1,1.006911640E0
2.339177920E0,6.038961187E-2,-3.154060245E-1,-6.262903214E-1,7.038234382E-1
2.344193337E0,1.145845652E-1,-4.023021460E-1,-2.586421967E-1,4.918052715E-1
2.349208805E0,1.187584102E-1,-4.758363366E-1,-3.376674652E-2,4.915932998E-1
2.354224222E0,7.011398673E-2,-5.971338749E-1,2.828178406E-1,6.644326652E-1
2.359239639E0,1.383518875E-1,-6.353473663E-1,5.142488480E-1,8.290110966E-1
2.364255108E0,9.841642529E-2,-7.278136015E-1,9.284410477E-1,1.183807928E0
2.369270524E0,1.754415780E-1,-7.642401457E-1,1.224154472E0,1.453752702E0
2.374285941E0,5.596157163E-2,-7.543920875E-1,1.186768532E0,1.407358756E0
2.379301410E0,1.130442619E-1,-7.465451956E-1,1.165893555E0,1.389034382E0
2.384316826E0,1.889279485E-1,-7.122126818E-1,1.113814354E0,1.335486087E0
2.389332243E0,2.301270142E-2,-6.324357986E-1,1.083249092E0,1.254564952E0
2.394347712E0,9.562570602E-2,-6.291580200E-1,1.064689636E0,1.240382244E0
2.399363128E0,1.370972693E-1,-6.026667356E-1,1.000787735E0,1.176256327E0
2.404378545E0,8.987829089E-2,-5.133371353E-1,8.175601959E-1,9.695348347E-1
2.409394014E0,7.365090400E-2,-4.287440181E-1,6.681537628E-1,7.972925056E-1
2.414409430E0,8.105481416E-2,-3.943021297E-1,5.453662872E-1,6.778410136E-1
2.419424847E0,1.455260515E-1,-4.003865123E-1,5.208415985E-1,6.728767804E-1
2.424440316E0,6.165077165E-2,-3.532288671E-1,5.275697708E-1,6.378881667E-1
2.429455733E0,5.410797521E-2,-3.813842535E-1,6.778726578E-1,7.796749079E-1
2.434471149E0,1.514637768E-1,-4.217427373E-1,8.067388535E-1,9.228411509E-1
2.439486618E0,5.943050981E-2,-4.617384076E-1,9.621095657E-1,1.068826066E0
2.444502035E0,1.224787310E-1,-4.937892556E-1,1.108184814E0,1.219386096E0
2.449517451E0,9.654409438E-2,-4.962665439E-1,1.218755722E0,1.319456992E0
2.454532920E0,6.811149418E-2,-4.929173589E-1,1.286777496E0,1.379638729E0
2.459548337E0,1.442814916E-1,-5.054425001E-1,1.240658760E0,1.347413607E0
2.464563753E0,6.446966529E-2,-4.407833815E-1,1.219192505E0,1.298028001E0
2.469579222E0,8.511891961E-2,-4.452008009E-1,1.207945824E0,1.290186846E0
2.474594639E0,7.901155204E-2,-3.687546849E-1,1.111232758E0,1.173482460E0
2.479610055E0,6.319804490E-2,-3.222607374E-1,9.506273270E-1,1.005752599E0
2.484625524E0,9.477885813E-2,-2.656697035E-1,7.213897705E-1,7.745751250E-1
2.489640941E0,2.346206829E-2,-2.211015224E-1,6.242685318E-1,6.626820894E-1
2.494656358E0,9.787727892E-2,-1.965381503E-1,4.964179993E-1,5.428057076E-1
2.499671826E0,7.663440704E-2,-1.444812417E-1,3.187398911E-1,3.582496053E-1
2.504687243E0,3.357057273E-2,-1.254359484E-1,1.844301224E-1,2.255562691E-1
2.509702660E0,5.050444230E-2,-8.232188225E-2,5.752277374E-2,1.124120122E-1
2.514718128E0,6.489428878E-2,-5.628341436E-2,4.308032990E-2,9.609894002E-2
2.519733545E0,6.267639250E-2,-3.787988424E-2,-6.461429596E-2,9.766382672E-2
2.524748962E0,1.746995002E-2,-1.043105125E-2,-1.530809402E-1,1.544272652E-1
2.529764430E0,5.134350806E-2,-3.795450926E-2,-1.362915039E-1,1.505060618E-1
2.534779847E0,6.821617484E-2,-5.997914076E-2,1.427459717E-2,9.194948592E-2
2.539795264E0,2.291522548E-2,-8.308464289E-2,1.932697296E-1,2.116160529E-1
2.544810733E0,3.471498936E-2,-1.164653301E-1,2.907514572E-1,3.151280906E-1
2.549826149E0,6.556595117E-2,-1.476734877E-1,3.331890106E-1,3.702988924E-1
2.554841566E0,7.475552708E-2,-1.810415387E-1,4.592924118E-1,4.993134758E-1
2.559857035E0,5.253342539E-2,-1.898007989E-1,5.876731873E-1,6.197934164E-1
2.564872451E0,3.721925616E-2,-2.380327284E-1,6.705408096E-1,7.125095299E-1
2.569887868E0,9.089802206E-2,-2.724307179E-1,7.677249908E-1,8.196844564E-1
2.574903285E0,5.836714059E-2,-2.978300154E-1,8.648052216E-1,9.165137819E-1
2.579918753E0,5.430388823E-2,-2.788270414E-1,9.067420959E-1,9.501971689E-1
2.584934170E0,5.708536878E-2,-2.567304373E-1,8.003673553E-1,8.424708661E-1
2.589949587E0,5.027369782E-2,-2.196873426E-1,6.080398560E-1,6.484615946E-1
2.594965055E0,6.703151762E-2,-2.344780415E-1,5.998840332E-1,6.475600587E-1
2.599980472E0,6.908627599E-2,-2.222418040E-1,6.631822586E-1,7.028335800E-1
2.604995941E0,4.956958815E-2,-2.021772563E-1,6.710910797E-1,7.026350577E-1
2.610011358E0,3.701664880E-2,-2.124140114E-1,5.997648239E-1,6.373443249E-1
2.615026774E0,7.427389175E-2,-2.532256544E-1,6.069889069E-1,6.618726283E-1
2.620042191E0,9.016053379E-2,-2.106132209E-1,5.611248016E-1,6.060923145E-1
2.625057660E0,1.482046768E-2,-1.285021007E-1,4.048805237E-1,4.250419681E-1
2.630073076E0,6.626492739E-2,-1.169492453E-1,2.531318665E-1,2.866075861E-1
2.635088493E0,8.642324060E-2,-1.283616722E-1,1.823110580E-1,2.391297081E-1
2.640103962E0,3.975299746E-2,-1.054102778E-1,1.731252670E-1,2.065526218E-1
2.645119378E0,2.644337341E-2,-7.681128383E-2,1.919803619E-1,2.084602713E-1
2.650134795E0,7.080276310E-2,-9.082308412E-2,1.695241928E-1,2.049397858E-1
2.655150264E0,4.084739834E-2,-7.159405947E-2,-2.556800842E-2,8.630146208E-2
2.660165680E0,3.242524713E-2,-3.400743008E-2,-1.276960373E-1,1.360668214E-1
2.665181097E0,2.171730995E-2,3.656738997E-2,-1.681051254E-1,1.734016977E-1
2.670196566E0,3.733886033E-2,-1.767706871E-2,-1.158332825E-1,1.229797486E-1
2.675211983E0,4.809471965E-2,-3.544992208E-2,-1.479568481E-1,1.595651213E-1
2.680227399E0,3.251115978E-2,-1.065519452E-1,8.684539795E-2,1.412530201E-1
2.685242816E0,8.605932444E-2,-1.542170644E-1,3.299322128E-1,3.742250330E-1
2.690258285E0,2.702874690E-2,-1.688578129E-1,3.733386993E-1,4.106401083E-1
2.695273701E0,4.672109336E-2,-1.988490820E-1,3.225889206E-1,3.818212012E-1
2.700289170E0,6.647054851E-2,-1.704789400E-1,2.113294601E-1,2.795380896E-1
2.705304587E0,4.706084728E-3,-1.153179407E-1,1.543931961E-1,1.927631544E-1
2.710320003E0,3.634855151E-2,-1.100107431E-1,1.062831879E-1,1.572249879E-1
2.715335420E0,5.839340389E-2,-9.762871265E-2,4.553794861E-2,1.225351375E-1
2.720350889E0,4.926593602E-2,-8.759951591E-2,-1.019258499E-1,1.431421899E-1
2.725366305E0,2.097162604E-2,-5.184268951E-2,-5.625629425E-2,7.932366732E-2
2.730381722E0,2.635517716E-2,-2.451682091E-2,-1.140003204E-1,1.195480779E-1
2.735397191E0,7.459779084E-2,2.646148205E-2,-3.320341110E-1,3.413380895E-1
2.740412608E0,1.564855874E-2,9.754741192E-2,-6.476383209E-1,6.551303456E-1
2.745428024E0,-2.379502356E-2,1.618442535E-1,-8.955402374E-1,9.103582165E-1
2.750443493E0,1.894488931E-3,2.124485970E-1,-9.252605438E-1,9.493392804E-1
2.755458910E0,-3.371447325E-3,2.114585638E-1,-8.996829987E-1,9.242053824E-1
2.760474326E0,1.773756742E-2,1.881812811E-1,-8.309001923E-1,8.521278926E-1
2.765489795E0,1.539644599E-2,1.409535408E-1,-6.904029846E-1,7.048129059E-1
2.770505212E0,1.067286730E-2,1.172358990E-1,-5.427160263E-1,5.553367009E-1
2.775520628E0,3.629684448E-3,1.338975430E-1,-5.814142227E-1,5.966441360E-1
2.780536045E0,8.989483118E-3,1.169645786E-1,-5.767288208E-1,5.885385766E-1
2.785551514E0,2.396659553E-2,1.350853443E-1,-5.643692017E-1,5.808055128E-1
2.790566930E0,5.784720182E-3,2.018492222E-1,-6.779394150E-1,7.073743152E-1
2.795582347E0,-1.205663383E-2,2.736933231E-1,-8.429508209E-1,8.863517835E-1
2.800597816E0,2.318668365E-2,2.550954819E-1,-9.349956512E-1,9.694473658E-1
2.805613233E0,-1.159578562E-3,2.584857941E-1,-9.565372467E-1,9.908479978E-1
2.810628649E0,-8.143469691E-3,2.748885155E-1,-8.863077164E-1,9.279932005E-1
2.815644118E0,1.585662365E-3,2.423555851E-1,-7.723083496E-1,8.094435934E-1
2.820659535E0,1.884014904E-2,1.902399063E-1,-6.816539764E-1,7.079536120E-1
2.825674951E0,3.375364840E-2,1.593489647E-1,-6.071615219E-1,6.286306666E-1
2.830690420E0,1.059830189E-3,1.641328335E-1,-5.559930801E-1,5.797145983E-1
2.835705837E0,3.049421310E-2,1.494545937E-1,-5.161180496E-1,5.381862259E-1
2.840721253E0,4.614889622E-4,1.441974640E-1,-5.377292633E-1,5.567278350E-1
2.845736722E0,-5.404278636E-3,1.506497860E-1,-5.489902496E-1,5.693108627E-1
2.850752139E0,4.634562135E-2,1.522119045E-1,-5.069370270E-1,5.313205528E-1
2.855767555E0,-1.647339761E-2,1.513421535E-1,-4.738130569E-1,4.976692006E-1
2.860783024E0,4.480838776E-3,1.265060902E-1,-4.687137604E-1,4.855063933E-1
2.865798441E0,3.055816889E-2,1.067392826E-1,-4.629926682E-1,4.761189840E-1
2.870813858E0,1.600348949E-2,8.760619164E-2,-3.970136642E-1,4.068793508E-1
2.875829274E0,1.577636600E-2,7.897806168E-2,-2.972669601E-1,3.079838852E-1
2.880844743E0,3.815025091E-3,4.521799088E-2,-2.522983551E-1,2.563467985E-1
2.885860160E0,2.298080921E-2,1.499271393E-2,-2.070360184E-1,2.088463837E-1
2.890875576E0,1.843342185E-2,1.254296303E-2,-1.902561188E-1,1.915581053E-1
2.895891045E0,-1.978868246E-2,-9.776830673E-3,-1.278924942E-1,1.297831593E-1
2.900906462E0,2.617964149E-2,-3.488659859E-2,-8.223628998E-2,9.308735563E-2
2.905921878E0,7.158517838E-5,-5.088925362E-2,-5.326461792E-2,7.366709428E-2
2.910937295E0,2.179953456E-2,-5.990076065E-2,-3.146553040E-2,7.108727338E-2
2.915952764E0,5.333214998E-3,-7.131600380E-2,3.331947327E-2,7.889615250E-2
2.920968180E0,1.273241639E-2,-7.076168060E-2,7.168960571E-2,1.015319134E-1
2.925983597E0,2.960067987E-2,-6.747770309E-2,1.098890305E-1,1.323066124E-1
2.930999066E0,8.328020573E-3,-1.043338776E-1,1.335382462E-1,1.696684329E-1
2.936014483E0,1.354038715E-3,-1.216938496E-1,1.713905334E-1,2.102045228E-1
2.941029899E0,2.545231581E-2,-1.025316715E-1,1.707525253E-1,2.007909085E-1
2.946045368E0,-2.239741385E-2,-8.539104462E-2,2.106246948E-1,2.283769619E-1
2.951060785E0,5.194145441E-2,-1.203391552E-1,1.738033295E-1,2.176856088E-1
2.956076201E0,2.572289109E-2,-1.069626808E-1,1.894941330E-1,2.191134607E-1
2.961091670E0,-5.562013388E-2,-9.553742409E-2,1.930723190E-1,2.224812780E-1
2.966107087E0,1.374182105E-2,-1.028432846E-1,1.463375092E-1,1.793885320E-1
2.971122503E0,6.157618761E-2,-9.792757034E-2,1.593618393E-1,1.969203690E-1
2.976137920E0,-1.096129417E-3,-8.552646637E-2,1.149015427E-1,1.432422509E-1
2.981153389E0,-3.469386697E-2,-8.719992638E-2,1.301927567E-1,1.604918859E-1
2.986168805E0,3.678750992E-2,-8.383178711E-2,1.262636185E-1,1.559602217E-1
2.991184222E0,6.738248467E-2,-9.707951546E-2,1.270828247E-1,1.735363821E-1
2.996199691E0,-3.095008433E-2,-8.850598335E-2,1.015348434E-1,1.382047077E-1
3.001215108E0,-7.186606526E-3,-8.461070061E-2,1.070690155E-1,1.366542793E-1
3.006230524E0,1.001585722E-1,-9.016895294E-2,1.388530731E-1,1.935002728E-1
3.011245993E0,6.434649229E-3,-8.356213570E-2,8.448123932E-2,1.190004833E-1
3.016261410E0,-5.601115525E-2,-7.201242447E-2,8.273601532E-2,1.231595998E-1
3.021276826E0,4.886168242E-2,-1.010541916E-1,1.048736572E-1,1.536160722E-1
3.026292243E0,3.411030769E-2,-7.732272148E-2,1.197671890E-1,1.465827272E-1
3.031307712E0,-6.643623114E-3,-7.009720802E-2,9.632968903E-2,1.193195931E-1
3.036323128E0,-2.831986547E-2,-7.702279091E-2,9.199523926E-2,1.232787457E-1
3.041338545E0,1.552999020E-4,-3.607249260E-2,1.067686081E-1,1.126977574E-1
3.046354014E0,1.176276803E-2,-6.911277771E-2,8.800792694E-2,1.125181495E-1
3.051369430E0,-5.330827832E-2,-4.456043243E-2,7.878684998E-2,1.050465250E-1
3.056384847E0,-3.219765425E-2,-2.439260483E-2,6.707286835E-2,7.829723991E-2
3.061400316E0,-1.611378789E-2,-1.609301567E-2,8.641529083E-2,8.936577535E-2
3.066415733E0,-6.455615163E-2,-2.592563629E-3,4.585456848E-2,7.922663409E-2
3.071431149E0,-1.943264753E-1,2.074360847E-2,3.156948090E-2,1.979639068E-1
3.076446618E0,-3.264867961E-1,-2.524447441E-2,1.033401489E-1,3.433803983E-1
3.081462035E0,9.600332379E-2,-1.191482544E-1,9.377479553E-2,1.794621324E-1
3.086477451E0,2.905053198E-1,-1.386253834E-1,-6.656646729E-3,3.219544202E-1
3.091492868E0,-3.326846361E-1,-5.732274055E-2,-1.379966736E-2,3.378689014E-1
3.096508337E0,-3.238910735E-1,-1.034262180E-1,6.049346924E-2,3.453431190E-1
3.101523753E0,5.092245340E-1,-3.173961639E-1,-2.054023743E-2,6.003930815E-1
3.106539170E0,1.338207126E-1,-3.854691982E-1,-1.993761063E-1,4.541423980E-1
3.111554587E0,-5.373456478E-1,-3.343834877E-1,-2.750205994E-1,6.900644840E-1
3.116570055E0,-2.654267848E-2,-3.771312237E-1,-1.018152237E-1,3.915339237E-1
3.121585472E0,2.897336781E-1,-4.014570713E-1,9.999561310E-2,5.050866331E-1
3.126600941E0,2.831332982E-1,-4.264123440E-1,-3.078451157E-1,5.972943720E-1
3.131616358E0,6.448984146E-3,-4.344441891E-1,-1.213188171E-1,4.511115142E-1
3.136631774E0,-1.751604080E-1,-2.597806454E-1,1.491756439E-1,3.470166062E-1
3.141647191E0,2.479066849E-1,-2.078003883E-1,1.895389557E-1,3.749183131E-1
3.146662660E0,1.902506649E-1,-2.729949951E-1,7.772541046E-2,3.417057540E-1
3.151678076E0,1.116926074E-1,-3.330159187E-1,-2.467994690E-1,4.292840768E-1
3.156693493E0,-3.961686790E-2,-1.140594482E-1,1.932992935E-1,2.279115417E-1
3.161708910E0,-1.021419466E-1,1.700954437E-1,6.271991730E-1,6.578329878E-1
3.166724378E0,1.399636865E-1,5.120444298E-2,2.833700180E-1,3.201722905E-1
3.171739795E0,8.334472775E-2,-3.504323959E-2,3.241539001E-2,9.604753925E-2
3.176755212E0,-2.174219191E-1,1.416487694E-1,1.939973831E-1,3.239932861E-1
3.181770680E0,1.157821715E-1,3.442130089E-1,4.868593216E-1,6.073879368E-1
3.186786097E0,-9.029866755E-2,4.015052319E-1,4.706907272E-1,6.252280074E-1
3.191801514E0,-5.466127396E-2,4.309911728E-1,2.905416489E-1,5.226429906E-1
3.196816983E0,-2.888417244E-2,4.730505943E-1,1.781177521E-1,5.062974361E-1
3.201832399E0,6.575366855E-2,5.465204716E-1,2.088499069E-1,5.887499082E-1
3.206847816E0,-4.220858216E-2,5.844711065E-1,3.127403259E-1,6.642247739E-1
3.211863233E0,-2.727692127E-1,4.628062248E-1,1.499176025E-1,5.577346436E-1
3.216878701E0,6.847739220E-3,2.560806274E-1,-1.585788727E-1,3.012829868E-1
3.221894118E0,9.910449386E-2,3.192455769E-1,8.592605591E-4,3.342756009E-1
3.226909535E0,-2.129380852E-1,5.455033779E-1,2.611131668E-1,6.411681911E-1
3.231924951E0,-9.957996011E-2,3.866841793E-1,2.800559998E-2,4.002813218E-1
3.236940420E0,1.765266359E-1,1.331541538E-1,-3.215856552E-1,3.902678766E-1
3.241955837E0,-7.659524679E-3,1.159753799E-1,-1.932172775E-1,2.254814259E-1
3.246971253E0,1.187756658E-2,1.195931435E-1,1.004705429E-1,1.566458635E-1
3.251986722E0,-9.670464694E-2,-1.064872742E-2,-2.590084076E-2,1.006778908E-1
3.257002139E0,8.974933624E-2,-1.334233284E-1,-1.130456924E-1,1.965605670E-1
3.262017555E0,-5.394995213E-3,-1.676578522E-1,-1.400213242E-1,2.185045368E-1
3.267033024E0,-1.971781254E-3,-1.426830292E-1,-2.419853210E-2,1.447339065E-1
3.272048441E0,2.574340999E-1,-2.488119602E-1,8.598232269E-2,3.682019380E-1
3.277063858E0,-2.021531016E-1,-3.165721893E-1,-7.764720917E-2,3.835530167E-1
3.282079274E0,2.280185223E-1,-4.073970318E-1,-3.338146210E-2,4.680588745E-1
3.287094743E0,-3.288855255E-1,-3.909971714E-1,-6.537628174E-2,5.150908028E-1
3.292110160E0,4.978486896E-2,-3.558564186E-1,-7.095146179E-2,3.662600630E-1
3.297125576E0,2.920309901E-1,-3.446023464E-1,4.692649841E-2,4.541310082E-1
3.302140993E0,-2.726017833E-1,-2.169706821E-1,2.342224121E-3,3.484156931E-1
3.307156462E0,-3.722493351E-2,-2.967491150E-1,7.931709290E-3,2.991799541E-1
3.312171878E0,1.057375669E-1,-3.186624050E-1,-5.584716797E-3,3.357936129E-1
3.317187295E0,-1.274986118E-1,-2.689099312E-1,-7.365608215E-2,3.065838638E-1
3.322202764E0,5.622848868E-2,-2.215731144E-1,1.008892059E-1,2.498698058E-1
3.327218180E0,-1.629007757E-1,-1.193323135E-1,2.688598633E-2,2.037148007E-1
3.332233597E0,7.794743776E-2,-1.361632347E-1,3.883838654E-2,1.616312155E-1
3.337249014E0,8.374989033E-2,-1.596095562E-1,3.396701813E-2,1.834203175E-1
3.342264483E0,-7.212795317E-2,-1.538558006E-1,-1.136589050E-2,1.703033543E-1
3.347279899E0,-1.793431193E-1,-1.429584026E-1,1.809740067E-1,2.921517592E-1
3.352295316E0,-1.004425585E-1,-1.795315742E-1,1.247749329E-1,2.406014912E-1
3.357310785E0,1.791983843E-1,-1.775245667E-1,1.069421768E-1,2.739774843E-1
3.362326201E0,-7.315093279E-2,-1.442687511E-1,-3.445625305E-3,1.617912354E-1
3.367341618E0,-2.304788232E-1,-6.594586372E-2,-2.512454987E-2,2.410406353E-1
3.372357087E0,1.091676056E-1,-2.616119385E-2,1.670084000E-1,2.012306633E-1
3.377372503E0,1.112289131E-1,-3.647923470E-2,-2.946853638E-2,1.207103985E-1
3.382387920E0,-1.713815928E-1,-1.812338829E-2,5.107307434E-2,1.797458385E-1
3.387403337E0,-1.170099229E-1,-4.043722153E-2,5.025959015E-2,1.336133127E-1
3.392418805E0,1.769894958E-1,3.964591026E-2,-1.467323303E-2,1.819680839E-1
3.397434222E0,7.599949837E-3,8.090066910E-2,6.579399109E-2,1.045539419E-1
3.402449639E0,-1.981941164E-1,1.123652458E-1,-7.521438599E-2,2.399251135E-1
3.407465055E0,1.891570687E-1,1.147611141E-1,5.569744110E-2,2.281506408E-1
3.412480524E0,1.197483242E-1,9.580397606E-2,-3.528976440E-2,1.573640062E-1
3.417495941E0,-1.935522705E-1,1.242029667E-1,2.413082123E-2,2.312383076E-1
3.422511358E0,-2.934542298E-2,8.091473579E-2,8.311653137E-2,1.196524388E-1
3.427526826E0,1.981964707E-2,6.357502937E-2,-3.155231476E-2,7.368956057E-2
3.432542243E0,3.016108871E-1,6.528997421E-2,7.793712616E-2,3.182861976E-1
3.437557660E0,7.052701712E-2,5.277776718E-2,2.031326294E-2,9.040011893E-2
3.442573076E0,-2.581765354E-1,7.367181778E-2,3.675651550E-2,2.709865339E-1
3.447588545E0,-1.327290684E-1,2.768254280E-2,5.788135529E-2,1.474231327E-1
3.452603962E0,2.909372449E-1,-7.041788101E-2,1.643753052E-1,3.415002187E-1
3.457619378E0,6.519386172E-2,-1.010978222E-1,8.238601685E-2,1.458028293E-1
3.462634795E0,-3.720650673E-1,-4.126954079E-2,8.892154694E-2,3.847630840E-1
3.467650264E0,1.510815620E-1,-2.711963654E-2,2.283754349E-1,2.751662267E-1
3.472665680E0,3.279335797E-1,-8.419656754E-2,1.007280350E-1,3.532359434E-1
3.477681097E0,-1.188275218E-2,-1.166749001E-1,6.663703918E-2,1.348878315E-1
3.482696566E0,-2.611877918E-1,-8.935093880E-2,3.040409088E-2,2.777175933E-1
3.487711983E0,-1.072772592E-1,-1.002848148E-1,3.246688843E-2,1.503979830E-1
3.492727399E0,1.570373476E-1,-1.704218388E-1,1.389627457E-1,2.702128353E-1
3.497742816E0,-8.911269903E-2,-2.183754444E-1,-3.802013397E-2,2.389025710E-1
3.502758285E0,-2.549233735E-1,-1.207747459E-1,9.027385712E-2,2.961787212E-1
3.507773701E0,-1.205049008E-1,-4.030418396E-2,5.834102631E-2,1.398196471E-1
3.512789118E0,1.126493216E-1,1.922845840E-3,9.067153931E-2,1.446198293E-1
3.517804535E0,-2.071088254E-1,5.358028412E-2,3.480625153E-2,2.167403690E-1
3.522820003E0,2.178698778E-2,-4.972934723E-2,-8.701324463E-2,1.025621058E-1
3.527835420E0,-4.804739356E-2,-4.070091248E-2,-2.973079681E-2,6.963502411E-2
3.532850837E0,2.839044034E-1,-9.609055519E-2,-5.358409882E-2,3.044771925E-1
3.537866253E0,-1.442556530E-1,-2.524614334E-2,-1.251220703E-3,1.464534968E-1
3.542881722E0,-1.700854301E-1,7.834601402E-2,3.162384033E-2,1.899137139E-1
3.547897139E0,-1.434242874E-1,9.075832367E-2,2.389144897E-2,1.714012861E-1
3.552912555E0,1.894451380E-1,3.882026672E-2,4.475593567E-2,1.984932422E-1
3.557928024E0,1.062119007E-1,-9.510517120E-4,-2.948856354E-2,1.102336053E-1
3.562943441E0,-3.417946696E-1,-3.112459183E-2,-3.419876099E-2,3.449085265E-1
3.567958858E0,-5.011272430E-2,-1.304769516E-1,1.114082336E-2,1.402128310E-1
3.572974274E0,2.792702317E-1,-2.031559944E-1,-2.930259705E-2,3.465874530E-1
3.577989743E0,-2.677263021E-1,-1.183454990E-1,2.075958252E-2,2.934518534E-1
3.583005160E0,-2.760312557E-1,-9.345030785E-2,-9.819889069E-2,3.075211152E-1
3.588020576E0,6.470367312E-2,-1.208062172E-1,-2.547264099E-3,1.370663926E-1
3.593036045E0,7.043570280E-2,-8.126902580E-2,-7.629871368E-2,1.318610499E-1
3.598051462E0,-1.426324248E-2,-1.156444550E-1,-5.210494995E-2,1.276401420E-1
3.603066878E0,-1.716472358E-1,-7.612299919E-2,-5.897235870E-2,1.968126613E-1
3.608082295E0,-5.227807164E-2,-1.153557301E-1,-8.950233459E-2,1.550825881E-1
3.613097712E0,-2.472782433E-1,-9.275197983E-2,-1.956930161E-1,3.287023211E-1
3.618113180E0,1.697820127E-1,3.927326202E-2,-9.075164795E-3,1.745012308E-1
3.623128597E0,-9.105139971E-2,1.155765057E-1,-2.819061279E-2,1.498098685E-1
3.628144014E0,-1.998891085E-1,2.293984890E-1,1.831102371E-1,3.551178416E-1
3.633159483E0,-3.029675484E-1,1.614964008E-1,2.123088837E-1,4.036650653E-1
3.638174899E0,4.840561748E-2,4.851984978E-2,7.522106171E-2,1.017619170E-1
3.643190316E0,7.625097036E-2,1.053586006E-1,2.169647217E-1,2.529591581E-1
3.648205733E0,-3.066785932E-1,1.143069267E-1,-2.947139740E-2,3.286128364E-1
3.653221201E0,-1.163280904E-1,1.301994324E-1,-2.927875519E-2,1.770349184E-1
3.658236618E0,2.077129185E-1,1.269237995E-1,-7.709503174E-3,2.435441312E-1
3.663252035E0,5.435067415E-2,1.379723549E-1,-7.179927826E-2,1.647589234E-1
3.668267451E0,-2.754468620E-1,2.153799534E-1,1.709280014E-1,3.891990233E-1
3.673282920E0,-6.573379040E-3,1.258878708E-1,1.481199265E-1,1.945005860E-1
3.678298337E0,-6.039328873E-2,3.193283081E-2,1.137552261E-1,1.326925261E-1
3.683313753E0,2.804841399E-1,1.489806175E-2,1.128749847E-1,3.027111943E-1
3.688329222E0,-3.238871992E-1,-1.375174522E-2,-1.860141754E-2,3.247122434E-1
3.693344639E0,-4.934164882E-2,-1.124262810E-2,5.328178406E-3,5.088599493E-2
3.698360055E0,1.326733828E-1,7.350444794E-4,4.330444336E-2,1.395637546E-1
3.703375472E0,2.635508478E-1,1.994824409E-2,-1.405143738E-2,2.646779641E-1
3.708390941E0,-7.458651066E-2,2.243804932E-2,1.379747391E-1,1.584412896E-1
3.713406358E0,-8.201056719E-2,-3.488779068E-3,6.191253662E-3,8.231789800E-2
3.718421774E0,-2.058786154E-2,-3.899908066E-2,1.011304855E-1,1.103275280E-1
3.723437191E0,4.510831535E-1,-6.226301193E-2,1.928834915E-1,4.945267792E-1
3.728452660E0,1.116920114E-1,1.256680489E-2,8.429718018E-2,1.404957102E-1
3.733468076E0,-4.622126520E-1,9.864592552E-2,2.116565704E-1,5.178513861E-1
3.738483493E0,3.849059343E-3,-3.436088562E-2,6.729030609E-2,7.565362524E-2
3.743498910E0,2.285177112E-1,-6.676149368E-2,1.307325363E-1,2.716034562E-1
3.748514378E0,5.343825817E-1,-2.002310753E-2,2.006273270E-1,5.711540885E-1
3.753529795E0,-1.878570020E-1,9.099864960E-2,1.107206345E-1,2.362838681E-1
3.758545212E0,-1.965910792E-1,1.611173153E-1,1.947717667E-1,3.202231766E-1
3.763560628E0,1.388382614E-1,4.552507401E-2,-1.391601562E-2,1.467727859E-1
3.768576097E0,3.859230876E-1,1.092269421E-1,-1.201725006E-2,4.012624686E-1
3.773591514E0,-7.681173086E-2,1.250898838E-1,3.017139435E-2,1.498593810E-1
3.778606930E0,-2.222407013E-1,1.266746521E-1,-1.348590851E-2,2.561625783E-1
3.783622347E0,1.129397452E-1,1.901168823E-1,3.339385986E-2,2.236402577E-1
3.788637816E0,3.597227037E-1,1.557388306E-1,-1.005716324E-1,4.046846428E-1
3.793653233E0,-5.764730275E-2,2.048511505E-1,-6.962394714E-2,2.239077922E-1
3.798668649E0,-7.515715063E-2,1.749310493E-1,-5.548286438E-2,1.983124241E-1
3.803684066E0,4.787743092E-3,6.871509552E-2,-6.979560852E-2,9.806178565E-2
3.808699535E0,3.189476132E-1,4.853606224E-2,1.155185699E-1,3.426775005E-1
3.813714951E0,9.421387315E-2,2.621030807E-2,1.438426971E-2,9.884402540E-2
3.818730368E0,-1.978628337E-1,3.953027725E-2,8.506107330E-2,2.189697011E-1
3.823745785E0,1.013271213E-1,3.615069389E-2,1.337738037E-1,1.716667957E-1
3.828761253E0,1.747323275E-1,-1.707816124E-2,8.474159241E-2,1.949466269E-1
3.833776670E0,1.311578751E-1,3.025555611E-2,1.642122269E-1,2.123286187E-1
3.838792087E0,-2.153661847E-2,5.397152901E-2,1.645231247E-1,1.744838400E-1
3.843807555E0,4.635155201E-4,1.114099026E-1,2.145071030E-1,2.417140427E-1
3.848822972E0,1.172326505E-1,1.453089714E-1,2.448940277E-1,3.079468726E-1
3.853838389E0,7.868966460E-2,1.535592079E-1,2.012243271E-1,2.650730531E-1
3.858853805E0,-1.471613199E-1,2.146513462E-1,1.553535461E-1,3.030946697E-1
3.863869222E0,6.335845590E-2,2.806398869E-1,1.452960968E-1,3.223104028E-1
3.868884691E0,9.141349792E-2,3.134684563E-1,1.019010544E-1,3.420566116E-1
3.873900108E0,-4.940176010E-2,3.844869137E-1,8.009719849E-2,3.958361806E-1
3.878915524E0,6.274515390E-2,3.649537563E-1,-2.468776703E-2,3.711302796E-1
3.883930993E0,-1.229764074E-1,3.765900135E-1,-3.843307495E-2,3.980205225E-1
3.888946410E0,-1.314676553E-1,4.213628769E-1,-3.544521332E-2,4.428168714E-1
3.893961826E0,-4.480884969E-2,4.442505836E-1,1.029109955E-2,4.466232426E-1
3.898977243E0,-9.180983901E-2,4.762721062E-1,1.295566559E-2,4.852133705E-1
3.903992660E0,-9.339734912E-2,4.246444702E-1,-4.130649567E-2,4.367518947E-1
3.909008128E0,-1.446802765E-1,3.895566463E-1,-6.648349762E-2,4.208406095E-1
3.914023545E0,-1.623431593E-1,3.543007374E-1,-8.183097839E-2,3.982218263E-1
3.919038962E0,-1.514032781E-1,3.546094894E-1,-4.472637177E-2,3.881640001E-1
3.924054378E0,-1.596263796E-1,3.666155338E-1,2.297496796E-2,4.005188883E-1
3.929069847E0,-1.226616055E-1,3.119339943E-1,4.503345490E-2,3.381962423E-1
3.934085264E0,-1.642506868E-1,3.100266457E-1,8.587837219E-2,3.612061793E-1
3.939100680E0,-2.412299216E-1,3.107702732E-1,8.594512939E-2,4.026867307E-1
3.944116097E0,-3.390479684E-1,3.000457287E-1,9.301280975E-2,4.622037937E-1
3.949131566E0,-3.697208464E-1,3.182327747E-1,1.663970947E-1,5.154159450E-1
3.954146983E0,6.525364518E-2,3.179683685E-1,1.843681335E-1,3.733008576E-1
3.959162399E0,-1.780269444E-1,3.327770233E-1,1.497097015E-1,4.060137127E-1
3.964177816E0,-3.338285983E-1,3.839035034E-1,1.412172318E-1,5.279827076E-1
3.969193285E0,-3.341273665E-1,3.855140209E-1,1.349411011E-1,5.277037598E-1
3.974208701E0,-2.251246721E-1,4.067084789E-1,1.214189529E-1,4.804533973E-1
3.979224118E0,-1.884185374E-1,4.117317200E-1,1.600513458E-1,4.802509633E-1
3.984239535E0,-4.276889563E-1,4.576222897E-1,9.846878052E-2,6.340600161E-1
3.989255003E0,-3.609607816E-1,4.177417755E-1,1.125621796E-2,5.522024803E-1
3.994270420E0,-1.835254133E-1,3.615412712E-1,1.972579956E-2,4.059344470E-1
3.999285837E0,-2.141515464E-1,3.532390594E-1,-5.021953583E-2,4.161258460E-1
4.004301253E0,-2.751698792E-1,3.639740944E-1,-2.223873138E-2,4.568261868E-1
4.009316670E0,-2.645074129E-1,3.887219429E-1,1.740741730E-2,4.705017944E-1
4.014332139E0,-2.822881341E-1,3.512229919E-1,8.292388916E-2,4.581708765E-1
4.019347555E0,-1.194349676E-1,2.876937389E-1,7.435321808E-2,3.202511514E-1
4.024362972E0,-3.095046282E-1,2.412025928E-1,7.536792755E-2,3.995649261E-1
4.029378389E0,-3.293913305E-1,2.758476734E-1,1.594514847E-1,4.582743321E-1
4.034393858E0,-1.566295028E-1,2.701535225E-1,1.501436234E-1,3.464950714E-1
4.039409274E0,-1.184379011E-1,2.743172646E-1,1.479282379E-1,3.334070510E-1
4.044424691E0,-2.729683816E-1,3.479182720E-1,1.668958664E-1,4.726659408E-1
4.049440108E0,-2.147655189E-1,3.359179497E-1,1.926736832E-1,4.428185240E-1
4.054455576E0,-1.927992105E-1,3.198003769E-1,1.990680695E-1,4.231688941E-1
4.059470993E0,-1.635308862E-1,3.187119961E-1,1.909599304E-1,4.059376580E-1
4.064486410E0,-1.773480177E-1,3.492579460E-1,2.016601562E-1,4.405681001E-1
4.069501826E0,-2.029223293E-1,4.229855537E-1,2.310304642E-1,5.229429470E-1
4.074517295E0,-4.084151983E-2,4.182467461E-1,1.222791672E-1,4.376649004E-1
4.079532712E0,3.668838739E-2,3.854775429E-1,1.902675629E-2,3.876867180E-1
4.084548128E0,-3.396275043E-1,4.221105576E-1,-9.869575500E-3,5.418685939E-1
4.089563545E0,-1.690864861E-1,3.872897625E-1,6.589031219E-2,4.276974786E-1
4.094579014E0,6.864477694E-2,4.409863949E-1,3.877830505E-2,4.479786410E-1
4.099594430E0,5.008707047E-1,3.071384430E-1,-1.054286957E0,1.206949242E0
4.104609847E0,1.565534115E0,1.861548424E-2,-2.982069969E0,3.368083268E0
4.109625264E0,2.626971483E0,2.832301378E0,-1.648854256E0,4.200194118E0
4.114640733E0,-2.904377699E0,3.782990217E0,-8.499828339E0,9.746461234E0
4.119656149E0,-3.849958897E0,3.668704510E0,1.788259506E0,5.610654895E0
4.124671566E0,-8.414344788E0,2.526493073E0,3.175184727E0,9.341636018E0
4.129686983E0,-7.240536213E0,8.646605015E-1,-5.820343971E0,9.330027137E0
4.134702399E0,1.881114388E1,-2.120629072E0,-1.253078461E0,1.897172652E1
4.139717868E0,2.971559763E0,5.824320316E-1,7.175361633E0,7.788145419E0
4.144733285E0,-1.370769882E1,-5.471192837E0,-9.920770645E0,1.778360617E1
4.149748701E0,-6.726917744E0,-2.612770081E0,3.611433506E0,8.069723774E0
4.154764170E0,1.370601273E1,-2.162511349E0,5.461854935E-1,1.388630832E1
4.159779587E0,-1.888029575E-1,-8.530776501E-1,-1.981348991E0,2.165440338E0
4.164795003E0,-3.027142048E0,-3.845606327E0,2.733743668E0,5.605856887E0
4.169810420E0,-2.238971233E0,1.127264500E-1,-7.508878708E-1,2.364219117E0
4.174825837E0,7.613740444E0,-2.346963167E0,1.967164040E0,8.206522651E0
4.179841305E0,-2.337691784E0,-3.484976768E0,-1.258960724E0,4.381192538E0
4.184856722E0,-6.424345016E0,1.115808487E0,5.612014771E0,8.603019659E0
4.189872139E0,5.115320683E0,-5.229930401E0,-1.824159622E-1,7.317920010E0
4.194887555E0,7.879456043E0,2.157157898E0,-8.979606628E-2,8.169897250E0
4.199902972E0,5.738316178E-1,2.364642859E0,1.128824234E0,2.682361408E0
4.204918441E0,-1.161055714E-1,3.472070694E-1,-2.445446014E0,2.472698822E0
4.209933858E0,-3.030349731E0,1.411890030E0,-3.394489288E-1,3.360309290E0
4.214949274E0,9.620292783E-1,-2.896237373E-2,-7.879638672E-2,9.656852603E-1
4.219964691E0,-1.008820832E-1,-1.401056051E0,-6.762151718E-1,1.558974731E0
4.224980160E0,6.601870060E-1,-2.720134258E-1,2.167655468E0,2.282228826E0
4.229995576E0,-4.729972839E0,-2.268954754E0,-1.792323112E0,5.543755124E0
4.235010993E0,6.265580654E0,-2.163663387E0,-4.055814743E-1,6.641041825E0
4.240026410E0,3.113456249E0,-3.974685431E0,4.778661728E-1,5.071497823E0
4.245041826E0,-2.938694477E0,-1.586120844E0,4.859304428E-1,3.374586339E0
4.250057295E0,1.226598740E0,-4.017740250E0,3.769235611E-1,4.217683316E0
4.255072712E0,1.759085357E-1,-2.396232843E0,2.621321678E0,3.555868810E0
4.260088128E0,4.688801765E0,-2.384310007E0,-3.473815918E-1,5.271666736E0
4.265103545E0,3.649843454E0,-2.847799778E0,6.587944031E-1,4.676037947E0
4.270119014E0,-1.946185827E0,-1.540306568E0,-4.485998154E-1,2.522186629E0
4.275134430E0,-9.036902428E0,3.766222000E-1,1.726776600E0,9.208105516E0
4.280149847E0,1.415597320E0,-1.654836416E0,-1.186983109E0,2.480187137E0
4.285165316E0,8.715909004E0,1.380592227E0,3.353143215E0,9.440162821E0
4.290180733E0,-4.206632614E0,4.591321945E-1,-1.599798203E-1,4.234637395E0
4.295196149E0,-6.012966633E-1,-6.669287682E-1,1.954614639E0,2.151016050E0
4.300211566E0,3.261772394E-1,-5.217735767E-1,1.762256622E0,1.866597884E0
4.305226983E0,7.436268926E-1,-1.647592545E0,-1.031088829E0,2.081030111E0
4.310242399E0,2.973458767E0,-1.899986982E0,3.097991467E0,4.695631874E0
4.315257868E0,-1.025407314E0,-4.200191498E-1,2.238159180E-1,1.130473269E0
4.320273285E0,-4.531711578E0,-1.529044628E0,2.157478333E0,5.246818089E0
4.325288701E0,2.504277468E0,-2.076829672E0,1.969031334E0,3.802855705E0
4.330304118E0,-2.076341867E0,-1.719537020E0,-2.397794724E-1,2.706565593E0
4.335319587E0,2.585583210E0,-1.806719065E0,2.730744839E0,4.172102790E0
4.340335003E0,2.888871431E0,-1.532043219E0,8.346748352E-1,3.374820981E0
4.345350420E0,-4.221529484E0,1.992622614E0,4.893455982E0,6.762970317E0
4.350365837E0,1.412997842E0,-1.301783562E0,-2.776972771E0,3.376800425E0
4.355381253E0,1.993409395E0,1.014773846E-1,5.611858845E0,5.956252041E0
4.360396722E0,-2.460356951E0,4.787312746E-1,-1.527185440E0,2.935103972E0
4.365412139E0,-3.065433741E0,3.299305439E-1,3.208871841E0,4.450010863E0
4.370427555E0,2.154602289E0,-1.640801430E-1,5.015525818E-1,2.218284993E0
4.375442972E0,1.767036557E0,3.252127171E-1,1.185855865E-1,1.800623239E0
4.380458441E0,-3.618039489E-1,4.693835974E-1,1.796978951E0,1.892182974E0
4.385473858E0,1.526970863E0,-6.645257473E-1,-1.730961800E0,2.401970699E0
4.390489274E0,-4.840626717E0,4.815657139E-1,1.362054825E0,5.051610228E0
4.395504691E0,4.955741405E0,-7.469696999E-1,-1.849915504E0,5.342239604E0
4.400520108E0,-8.852328658E-1,1.504108906E-1,3.454227448E-1,9.620694025E-1
4.405535576E0,2.654418349E-1,6.012327671E-1,-7.952337265E-1,1.031667043E0
4.410550993E0,1.403251171E0,-3.290870190E-1,-4.137620926E-1,1.499536990E0
4.415566410E0,-1.482416868E0,9.016981125E-1,1.987018585E-1,1.746454032E0
4.420581826E0,-8.980175257E-1,7.634987831E-1,-1.368465424E-1,1.186630880E0
4.425597295E0,-3.178285360E-1,4.777431488E-3,-8.448553085E-1,9.026728613E-1
4.430612712E0,3.872526884E-1,9.804542065E-1,-5.670604706E-1,1.197001534E0
4.435628128E0,-5.318333209E-2,6.501622200E-1,-1.085630417E0,1.266543636E0
4.440643545E0,1.118943810E0,7.544968128E-1,-1.101346016E0,1.741913815E0
4.445658962E0,2.987423539E-2,4.231431484E-1,-1.339530945E0,1.405092789E0
4.450674430E0,-2.672917128E0,1.118989825E0,-1.154747009E0,3.119305188E0
4.455689847E0,-2.426234722E0,7.569744587E-1,-9.839220047E-1,2.725385802E0
4.460705264E0,1.037883401E0,9.114799500E-1,-6.340703964E-1,1.519882535E0
4.465720680E0,-1.114445210E0,1.064444542E0,-1.451262474E0,2.116882868E0
4.470736097E0,1.570289284E-1,7.711212635E-1,-1.183139801E0,1.420952454E0
4.475751566E0,1.493603468E0,6.632401943E-1,-1.464964867E0,2.194734821E0
4.480766983E0,-2.125111580E0,1.140805244E0,-1.683356285E0,2.941296349E0
4.485782399E0,9.496283531E-2,6.008489132E-1,-2.241513252E0,2.322588861E0
4.490797816E0,1.726318598E0,5.651926994E-1,-9.901714325E-1,2.068830141E0
4.495813285E0,-2.902225256E0,1.114641190E0,-2.149492264E0,3.779636677E0
4.500828701E0,-2.178855896E0,6.243827343E-1,-1.162715912E0,2.547385936E0
4.505844118E0,2.199022472E-1,6.831774712E-1,-1.548223495E0,1.706483064E0
4.510859535E0,-7.635931373E-1,8.856310844E-1,-1.685251236E0,2.051216377E0
4.515874951E0,1.748002321E-2,6.855099201E-1,-1.248618126E0,1.424526808E0
4.520890420E0,5.711374283E-1,6.119928360E-1,-1.167754173E0,1.436796089E0
4.525905837E0,-1.546722412E0,9.921278954E-1,-7.486629486E-1,1.984228866E0
4.530921253E0,2.875401974E-1,5.430297852E-1,-5.677824020E-1,8.366227159E-1
4.535936670E0,4.605042338E-1,3.582768440E-1,-8.599615097E-1,1.039211357E0
4.540952087E0,-1.877795219E0,4.812152386E-1,-4.953680038E-1,2.000767965E0
4.545967555E0,1.784161925E0,-1.838350296E-1,-9.151048660E-1,2.013565497E0
4.550982972E0,-4.481153786E-1,3.689596653E-1,3.705358505E-1,6.886475468E-1
4.555998389E0,-8.597092032E-1,1.665520668E-2,-4.278936386E-1,9.604531618E-1
4.561013805E0,3.666203618E-1,-2.383139133E-1,3.140544891E-1,5.383625480E-1
4.566029222E0,-1.089436054E0,3.214452267E-1,1.698188782E-1,1.148493100E0
4.571044691E0,1.081812680E-1,-2.593936920E-1,-3.881559372E-1,4.792215623E-1
4.576060108E0,5.288339257E-1,-4.815015793E-1,2.566452026E-1,7.598525198E-1
4.581075524E0,-9.895936251E-1,-5.573844910E-2,-2.573776245E-1,1.024033964E0
4.586090941E0,-5.255903006E-1,-7.983922958E-1,-2.802343369E-1,9.960957312E-1
4.591106358E0,1.375510573E0,-7.537662983E-1,-3.277196884E-1,1.602371107E0
4.596121826E0,-8.602722883E-1,-3.949782848E-1,5.728626251E-2,9.483448589E-1
4.601137243E0,-2.288038135E-1,-9.018919468E-1,-1.489143372E-1,9.423034270E-1
4.606152660E0,-4.182683527E-1,-5.115208626E-1,8.183240891E-1,1.051787204E0
4.611168076E0,-1.449314952E0,-1.690709591E-1,8.468999863E-1,1.687109482E0
4.616183545E0,8.391854167E-1,-8.221330643E-1,7.129764557E-1,1.374216273E0
4.621198962E0,7.193107605E-1,-7.738220692E-1,4.014377594E-1,1.130203893E0
4.626214378E0,-2.082894802E0,-4.185507298E-1,-3.438854218E-2,2.124810119E0
4.631229795E0,8.202779889E-1,-7.453787327E-1,5.490036011E-1,1.236871209E0
4.636245212E0,1.493199229E0,-5.504698753E-1,6.788644791E-1,1.730178604E0
4.641260680E0,-7.447565794E-1,-3.161666393E-1,4.757051468E-1,9.385729024E-1
4.646276097E0,-2.905802727E-1,-6.076242924E-1,3.371477127E-1,7.532016700E-1
4.651291514E0,9.950579405E-1,-5.352864265E-1,4.776639938E-1,1.226717064E0
4.656306930E0,-1.015959144E0,-1.509697437E-1,7.610225677E-1,1.278327107E0
4.661322347E0,5.478862524E-1,-4.142296314E-1,5.893840790E-1,9.050630507E-1
4.666337816E0,3.568673134E-1,-6.127746105E-1,6.179952621E-1,9.406195547E-1
4.671353233E0,-1.472012877E0,-9.734725952E-2,7.106819153E-1,1.637488072E0
4.676368649E0,4.579405785E-1,-4.783732891E-1,2.553577423E-1,7.097592223E-1
4.681384066E0,4.107064009E-2,-3.341898918E-1,5.366325378E-1,6.335172941E-1
4.686399483E0,-5.395716429E-1,-5.496430397E-2,-5.570888519E-2,5.452174909E-1
4.691414951E0,-3.815158010E-1,-2.637329102E-1,-1.452703476E-1,4.860173126E-1
4.696430368E0,3.093373179E-1,2.822422981E-2,9.255981445E-2,3.241195808E-1
4.701445785E0,4.238498956E-2,9.809970856E-2,-3.229703903E-1,3.401909952E-1
4.706461201E0,-9.130093455E-1,1.176853180E-1,-4.510908127E-1,1.025143317E0
4.711476618E0,-2.506908178E-1,1.524066925E-1,-5.889625549E-1,6.579898002E-1
4.716492087E0,-9.838361740E-1,3.394951820E-1,-2.506427765E-1,1.070519686E0
4.721507503E0,3.022735417E-1,3.546109200E-1,-3.481245041E-1,5.816432488E-1
4.726522920E0,-1.493495822E0,3.744766712E-1,-3.355379105E-1,1.575864282E0
4.731538337E0,-1.311986327E0,4.676454067E-1,-3.011751175E-1,1.425028702E0
4.736553753E0,-1.647596657E-1,3.984656334E-1,-4.081106186E-1,5.936959537E-1
4.741569222E0,-1.322505832E0,6.057140827E-1,-2.658843994E-1,1.478717599E0
4.746584639E0,2.663097084E-1,4.366004467E-1,-5.300798416E-1,7.365632690E-1
4.751600055E0,-7.581769824E-1,4.972119331E-1,-5.213823318E-1,1.045892719E0
4.756615472E0,-1.664389849E0,8.413414955E-1,-3.067169189E-1,1.890006442E0
4.761630889E0,7.845933437E-1,4.591748714E-1,-4.767789841E-1,1.026521543E0
4.766646358E0,-7.098455429E-1,7.567148209E-1,-3.621740341E-1,1.098939510E0
4.771661774E0,-1.360464811E0,8.563714027E-1,-7.349367142E-1,1.767588316E0
4.776677191E0,1.623961627E-1,4.665598869E-1,-6.523237228E-1,8.182767754E-1
4.781692608E0,-3.437837064E-1,9.191613197E-1,-5.699300766E-1,1.134841425E0
4.786708024E0,-1.344446421E0,8.772296906E-1,-6.927223206E-1,1.748408511E0
4.791723493E0,-1.274513304E-1,6.694729328E-1,-5.017776489E-1,8.462970273E-1
4.796738910E0,-8.626841307E-1,9.165122509E-1,-6.722278595E-1,1.426922882E0
4.801754326E0,-7.486534119E-1,9.126753807E-1,-6.432456970E-1,1.344330059E0
4.806769743E0,1.376010180E0,5.208797455E-1,-8.651323318E-1,1.706802178E0
4.811785160E0,-9.156436920E-1,7.660565376E-1,-8.143405914E-1,1.445128572E0
4.816800628E0,-1.226891875E0,7.155854702E-1,-8.157148361E-1,1.637900160E0
4.821816045E0,8.098025322E-1,5.285153389E-1,-5.850152969E-1,1.130199762E0
4.826831462E0,-3.095000386E-1,8.491120338E-1,-5.030670166E-1,1.034339375E0
4.831846878E0,-3.251690269E-1,8.055720329E-1,-4.593677521E-1,9.827003246E-1
4.836862295E0,-1.787476242E-2,7.029225826E-1,-3.633785248E-1,7.914945461E-1
4.841877712E0,-7.985640764E-1,1.019695759E0,-2.559080124E-1,1.320217003E0
4.846893180E0,1.263529211E-1,9.440629482E-1,-5.299377441E-2,9.539540089E-1
4.851908597E0,3.586988449E-1,9.197711945E-1,-2.190170288E-1,1.011242983E0
4.856924014E0,-6.736598611E-1,1.061452150E0,-2.776317596E-1,1.287469483E0
4.861939430E0,-5.068126321E-1,1.033417225E0,-2.262926102E-1,1.173038171E0
4.866954847E0,1.382124126E-1,1.094398022E0,-2.134981155E-1,1.123561812E0
4.871970316E0,-4.899034500E-1,1.138710976E0,-1.242895126E-1,1.245839460E0
4.876985733E0,-2.691523731E-1,1.126206398E0,-1.000518799E-1,1.162236736E0
4.882001149E0,1.018387079E-1,9.306292534E-1,-1.232584000E0,1.547806592E0
4.887016566E0,2.594198704E0,8.572545052E-1,-2.251014709E-1,2.741427160E0
4.892031983E0,1.978855133E0,6.839964390E-1,-1.215613365E0,2.421039987E0
4.897047451E0,-6.182464361E-1,4.615511894E-1,-1.104326248E0,1.347143132E0
4.902062868E0,9.909729362E-1,1.618878841E-1,-5.528230667E-1,1.146232258E0
4.907078285E0,-5.226408839E-1,7.993040085E-1,-2.513866425E-1,9.875401944E-1
4.912093701E0,-2.244738579E0,8.946304321E-1,3.561134338E-1,2.442546146E0
4.917109118E0,2.426150143E-1,4.390342236E-1,4.778671265E-1,6.927987335E-1
4.922124587E0,-7.291409969E-1,4.075045586E-1,-3.902339935E-2,8.361993688E-1
4.927140003E0,-1.429726362E0,1.816666126E-1,-1.532001495E-1,1.449341407E0
4.932155420E0,-1.082940817E0,1.001670361E-1,3.446044922E-1,1.140853410E0
4.937170837E0,4.758550227E-1,7.410991192E-1,3.539104462E-1,9.491672724E-1
4.942186253E0,5.860657692E-1,7.448003292E-1,1.090266705E0,1.444604480E0
4.947201670E0,8.357437253E-1,5.230286121E-1,-1.800537109E-3,9.859156888E-1
4.952217139E0,2.192063630E-1,1.195322752E0,1.087344646E0,1.630695033E0
4.957232555E0,1.599592090E0,1.354299545E0,1.802215576E-1,2.103640160E0
4.962247972E0,1.436900139E0,1.421252251E0,5.311965942E-3,2.021056206E0
4.967263389E0,-1.548361182E-1,1.060714960E0,-4.768657684E-2,1.073016523E0
4.972278805E0,-8.843383193E-1,8.085188866E-1,2.173223495E-1,1.217779149E0
4.977294274E0,-1.629398942E0,5.911421776E-1,2.219610214E-1,1.747471511E0
4.982309691E0,1.256845951E0,8.093841076E-1,-5.721015930E-1,1.600645061E0
4.987325108E0,-1.520161986E0,1.291998625E0,7.943277359E-1,2.147349404E0
4.992340524E0,1.994996667E0,8.509049416E-1,-3.515644073E-1,2.197191037E0
4.997355941E0,-3.727184236E-1,8.748610020E-1,-3.426904678E-1,1.010810345E0
5.002371410E0,-6.290390491E-1,1.299328089E0,1.287915707E0,1.934598272E0
5.007386826E0,8.742627501E-1,4.296851158E-1,-6.094465256E-1,1.149082122E0
5.012402243E0,7.159110308E-1,1.052838326E0,3.029394150E-1,1.308728174E0
5.017417660E0,1.336703658E0,7.026622295E-1,2.550468445E-1,1.531522044E0
5.022433076E0,-1.914387941E0,7.511420250E-1,-2.274780273E-1,2.069019523E0
5.027448493E0,1.724970043E-1,9.510407448E-1,-1.239023209E-1,9.744667772E-1
5.032463910E0,-2.385524511E-1,3.417825699E-1,-1.971292496E-1,4.610667393E-1
5.037479378E0,1.534454465E0,9.511058331E-1,2.363214493E-1,1.820714321E0
5.042494795E0,1.389330626E-1,8.478493690E-1,7.827949524E-2,8.627158442E-1
5.047510212E0,-5.825771093E-1,1.008875847E0,3.575029373E-1,1.218620086E0
5.052525628E0,-5.550357103E-1,1.039088249E0,9.795475006E-2,1.182101587E0
5.057541045E0,-3.145069778E-1,1.082132578E0,-6.263732910E-3,1.126927145E0
5.062556514E0,-1.932072639E-2,1.227247953E0,3.466501236E-1,1.275412536E0
5.067571930E0,7.210627794E-1,9.038019180E-1,2.710819244E-2,1.156513853E0
5.072587347E0,-1.530649304E0,9.576673508E-1,-7.404804230E-2,1.807068665E0
5.077602764E0,-1.172735214E0,1.073124409E0,1.599092484E-1,1.597646659E0
5.082618180E0,-7.121261358E-1,1.130635977E0,-1.011972427E-1,1.340038144E0
5.087633597E0,-2.921079099E-2,1.299713612E0,3.341751099E-1,1.342304640E0
5.092649066E0,-2.868361175E-1,1.438688993E0,4.778270721E-1,1.542860878E0
5.097664483E0,1.061176658E-1,1.140672684E0,4.283580780E-1,1.223064092E0
5.102679899E0,2.667643726E-1,1.152991772E0,4.415178299E-1,1.263127567E0
5.107695316E0,-1.300113648E-1,1.068734884E0,3.068237305E-1,1.119481134E0
5.112710733E0,-3.373223543E-1,1.218745708E0,3.899583817E-1,1.323327251E0
5.117726201E0,-1.540133655E-1,1.316010714E0,1.214809418E-1,1.330549486E0
5.122741618E0,3.379723430E-2,1.229485512E0,2.452669144E-1,1.254166152E0
5.127757035E0,-1.061855435E0,1.551172733E0,2.581729889E-1,1.897452794E0
5.132772451E0,-1.728318810E0,1.849425077E0,6.603965759E-1,2.616024210E0
5.137787868E0,-8.902964592E-1,2.071478367E0,9.948334694E-1,2.464415558E0
5.142803285E0,-9.068783373E-2,2.045801878E0,6.229162216E-1,2.140456546E0
5.147818753E0,-7.920978069E-1,2.335565329E0,1.097992897E0,2.699606035E0
5.152834170E0,4.824302197E-1,2.176055431E0,9.122352600E-1,2.408345766E0
5.157849587E0,-6.113273501E-1,2.344572067E0,8.698654175E-1,2.574374711E0
5.162865003E0,-1.149729133E0,-2.247901440E0,4.631671906E-1,2.566994703E0
5.167880420E0,4.094895840E0,-8.092618942E0,-2.085877419E0,9.306424549E0
5.172895837E0,-2.056167275E-1,-4.602179527E0,-7.395462036E0,8.712932535E0
5.177911305E0,-5.623593807E0,-8.725056648E0,-5.335287094E0,1.167119142E1
5.182926722E0,1.531854248E1,-1.314010906E1,-1.435660172E1,2.476756392E1
5.187942139E0,8.239488602E0,-7.561008453E0,-6.816815376E0,1.309683142E1
5.192957555E0,-1.138439846E1,-1.516773939E0,-8.774922371E0,1.445352532E1
5.197972972E0,-2.188204527E0,4.925364494E0,4.864778519E-1,5.411479941E0
5.202988389E0,2.765378952E0,6.186771393E-2,3.039626598E0,4.109802698E0
5.208003858E0,-6.885490417E0,2.982887030E0,3.081522942E0,8.111928067E0
5.213019274E0,1.367608309E0,7.927458286E-1,8.158383369E0,8.310115381E0
5.218034691E0,6.148614407E0,3.858588696E0,7.011025429E0,1.009200889E1
5.223050108E0,-1.343088341E1,5.004060268E-1,8.392819405E0,1.584545527E1
5.228065524E0,8.861322403E0,2.924401283E0,6.382049084E0,1.130511867E1
5.233080941E0,4.860457405E-2,1.660602093E-1,6.043209076E0,6.045685597E0
5.238096410E0,-7.873497963E0,-2.182717323E0,2.320528030E-1,8.173742936E0
5.243111826E0,2.593853712E0,-2.531687260E0,3.129408360E0,4.788602525E0
5.248127243E0,6.962692738E-1,-4.731328964E0,-5.450009346E0,7.250714899E0
5.253142660E0,-8.942039490E0,-5.887740135E0,-7.339195251E0,1.298034441E1
5.258158076E0,7.158809662E0,-1.340079308E-2,-7.301500320E0,1.022548983E1
5.263173493E0,-4.767520428E-1,-2.220915556E0,-7.521022797E0,7.856560464E0
5.268188962E0,-3.181000710E0,-3.530086756E0,-1.177474976E1,1.269744107E1
5.273204378E0,-6.416456103E-1,-3.055914879E0,-8.044677734E0,8.629435943E0
5.278219795E0,8.180423737E0,3.674502373E-1,8.995723724E-1,8.237935581E0
5.283235212E0,-3.473201990E0,-3.268326998E0,5.738999367E0,7.461984130E0
5.288250628E0,-8.465899229E-1,4.772717953E-1,6.919108391E0,6.987028252E0
5.293266045E0,3.294202089E0,-1.126681328E0,8.289836884E0,8.991249845E0
5.298281514E0,-4.634228706E0,9.004844427E-1,6.679092884E0,8.179072667E0
5.303296930E0,7.089315414E0,-4.152870178E-1,4.174195290E0,8.237400237E0
5.308312347E0,-5.423849106E0,-5.793685913E-1,2.580028534E0,6.034099297E0
5.313327764E0,4.695370495E-1,-1.447844028E0,1.982006550E0,2.499013272E0
5.318343180E0,1.582636595E0,-1.764382362E0,-5.699396133E-1,2.437747910E0
5.323358597E0,-9.518380165E-1,-4.753589630E-3,-1.888408661E0,2.114735321E0
5.328374066E0,-2.668002367E0,-2.859245777E0,-3.030370712E0,4.947390191E0
5.333389483E0,5.152863503E0,-4.160558224E0,-5.855783463E0,8.840387263E0
5.338404899E0,1.021442533E0,-2.707679749E0,-4.306502342E0,5.188529357E0
5.343420316E0,-7.495037079E0,-2.813643694E0,-7.437599182E0,1.092749071E1
5.348435733E0,5.664539337E0,-4.832894325E0,-6.990274429E0,1.021311951E1
5.353451149E0,5.137182236E0,-1.597248793E0,7.626439571E0,9.332975172E0
5.358466618E0,-1.210048771E1,1.805913091E0,5.703887939E0,1.349879485E1
5.363482035E0,-7.297244072E-1,-2.069908857E0,7.541031837E0,7.853927779E0
5.368497451E0,1.404999256E0,1.572483778E0,5.719260216E0,6.095626757E0
5.373512868E0,3.507408798E-1,2.607580662E0,4.688328266E0,5.376143414E0
5.378528285E0,5.388128161E-1,-2.016809464E0,3.180177689E0,3.804125365E0
5.383543701E0,4.464278221E0,-1.281248212E0,-3.180723190E0,5.629243025E0
5.388559170E0,-5.004609108E0,-1.645135880E0,-2.088546753E-3,5.268072584E0
5.393574587E0,2.443030834E0,-7.604616880E-1,-2.874624252E0,3.848397878E0
5.398590003E0,-4.206852019E-1,-3.537883759E0,-1.109102249E0,3.731448154E0
5.403605420E0,1.580340147E0,-7.161461115E-1,-2.423091888E0,2.980220551E0
5.408620837E0,1.249963284E0,-2.690744638E0,-2.227483749E0,3.710013312E0
5.413636253E0,-2.537908554E0,-1.404791594E0,-3.622128487E0,4.640499329E0
5.418651670E0,8.736505508E-1,-4.973939657E-1,1.119676590E0,1.504772976E0
5.423667139E0,-1.147151232E0,-2.070513248E0,3.834710598E0,4.506438331E0
5.428682555E0,-8.709610701E-1,1.538076401E-1,2.292305470E0,2.457009227E0
5.433697972E0,3.042710781E0,-1.911716223E0,9.330921173E-1,3.712601340E0
5.438713389E0,7.559576035E-1,-1.236725688E0,9.072542191E-1,1.709991972E0
5.443728805E0,8.049060106E-1,-1.397643328E0,7.280893326E-1,1.769574704E0
5.448744222E0,-1.133360386E0,-2.212312937E0,2.644615173E-1,2.499754826E0
5.453759639E0,3.925682604E-1,-5.834136009E-1,7.220487595E-1,1.007886740E0
5.458775108E0,5.753794909E-1,-2.410016060E0,-2.681570053E-1,2.492217315E0
5.463790524E0,-9.330260754E-1,-1.983742356E0,-1.568069458E0,2.695294644E0
5.468805941E0,2.262673616E0,-5.867290497E-1,-2.101828575E0,3.143505405E0
5.473821358E0,-2.268624783E0,-1.328095436E0,-9.902906418E-1,2.809122896E0
5.478836774E0,1.669418693E0,-1.290894747E0,-2.034946442E0,2.931616455E0
5.483852191E0,-1.960411072E0,-9.153366089E-2,1.312094688E0,2.360758872E0
5.488867608E0,5.953059196E-1,7.146978378E-2,3.887217522E0,3.933186638E0
5.493883076E0,-3.359462619E-1,-1.736650467E0,2.590140820E0,3.136501905E0
5.498898493E0,-1.256070435E-1,-1.185127139E0,2.392237663E0,2.672658696E0
5.503913910E0,-2.200554609E0,2.669978142E-1,1.644359589E0,2.760008492E0
5.508929326E0,-3.667907715E-1,-7.636047602E-1,6.010417938E-1,1.038690973E0
5.513944743E0,2.664594412E0,-2.078278542E0,-1.041354179E0,3.536060464E0
5.518960160E0,2.019108057E0,-2.110686302E0,-1.955329895E0,3.514983501E0
5.523975628E0,-8.614535332E-1,-1.085813046E0,-2.605528831E0,2.951249337E0
5.528991045E0,-5.523474216E-1,-5.435825586E-1,-2.487653732E0,2.605569182E0
5.534006462E0,-1.267490149E0,-7.853094339E-1,-6.078042984E-1,1.610176465E0
5.539021878E0,1.454102516E0,-1.137954712E0,-3.707647324E-1,1.883300704E0
5.544037295E0,1.629578233E0,-1.162049890E0,3.967704773E-1,2.040419558E0
5.549052712E0,-7.084169388E-1,-3.451970816E-1,1.287348747E0,1.509398020E0
5.554068180E0,-3.301801443E0,-7.959175110E-2,2.920485020E0,4.408793527E0
5.559083597E0,-1.949793816E0,-8.644998074E-2,2.815602303E0,3.425899276E0
5.564099014E0,-1.146622002E-1,-5.839035511E-1,1.448431969E0,1.565901001E0
5.569114430E0,1.215975523E0,-8.325582743E-1,4.512748718E-1,1.541232871E0
5.574129847E0,1.904555082E0,-1.009891868E0,-1.498955727E0,2.625657997E0
5.579145264E0,-7.785773277E-1,-1.055957317E0,-2.165434837E0,2.531864243E0
5.584160680E0,-1.331152916E0,-1.507810354E-1,-4.709539413E-1,1.420035430E0
5.589176149E0,1.403371096E0,-8.885589838E-1,-7.919769287E-1,1.840167100E0
5.594191566E0,-1.145187855E0,-3.264051676E-1,-1.562557220E-1,1.201004333E0
5.599206983E0,-4.266574085E-1,-2.941589355E-1,3.400926590E-1,6.198621139E-1
5.604222399E0,-2.871874273E-1,-4.262588024E-1,3.861598969E-1,6.428784107E-1
5.609237816E0,-1.254045606E0,-6.578755379E-2,9.725341797E-1,1.588326514E0
5.614253233E0,-6.162131429E-1,-1.256121397E-1,1.185416222E0,1.341904865E0
5.619268649E0,1.289705396E0,-7.401547432E-1,-7.419681549E-1,1.661832060E0
5.624284118E0,-2.761073411E-1,-4.275003672E-1,-1.316149712E0,1.411113706E0
5.629299535E0,-5.437813997E-1,-1.736155748E-1,-1.394513130E0,1.506820311E0
5.634314951E0,2.851102948E-1,-4.559315443E-1,-1.114126205E0,1.237108991E0
5.639330368E0,-1.918953657E0,2.697163820E-1,1.793959618E0,2.640723608E0
5.644345785E0,4.093117118E-1,-3.367758989E-1,5.406293869E-1,7.571223266E-1
5.649361201E0,1.295402646E0,-4.332998991E-1,-6.465663910E-1,1.511246147E0
5.654376618E0,-7.721111774E-1,-3.736865520E-2,-1.138846397E0,1.376416799E0
5.659392087E0,-1.272649407E0,-2.002290487E-1,-1.039750099E0,1.655538720E0
5.664407503E0,-3.353178501E-3,-2.447819710E-2,1.428998947E0,1.429212516E0
5.669422920E0,1.304547191E-1,5.361521244E-2,5.566062927E-1,5.741982148E-1
5.674438337E0,-5.202865601E-1,9.239161015E-2,-7.640647888E-1,9.289937113E-1
5.679453753E0,6.542459726E-1,-3.208808899E-1,-1.571377754E0,1.732117313E0
5.684469170E0,-1.310625970E-1,8.360671997E-2,-5.583286285E-2,1.651811023E-1
5.689484587E0,-4.820658267E-1,2.312710285E-1,7.835779190E-1,9.486137807E-1
5.694500055E0,1.496103108E-1,2.995749712E-1,1.184433937E0,1.230858302E0
5.699515472E0,-1.477507353E-1,1.463854313E-2,-3.066711426E-1,3.407224037E-1
5.704530889E0,-6.499968767E-1,1.440082788E-1,-5.597743988E-1,8.698170507E-1
5.709546305E0,1.943519711E-1,-1.139521599E-2,-2.506303787E-1,3.173611923E-1
5.714561722E0,4.715341926E-1,8.949911594E-2,1.011009216E-1,4.904854563E-1
5.719577139E0,-4.047114551E-1,-5.977392197E-3,2.922058105E-2,4.058089864E-1
5.724592555E0,-2.211447656E-1,4.817008972E-3,-6.978597641E-1,7.320768138E-1
5.729608024E0,-8.603066802E-1,2.514286041E-1,-1.470394135E-1,9.082755728E-1
5.734623441E0,9.112708569E-1,6.158399582E-2,3.052253723E-1,9.630003588E-1
5.739638858E0,4.912707806E-1,-1.037969589E-1,-1.493949890E-1,5.238698801E-1
5.744654274E0,-1.586913824E0,2.422965765E-1,7.953853607E-1,1.791547093E0
5.749669691E0,-1.438435316E-1,7.589840889E-2,4.263725281E-1,4.563387588E-1
5.754685108E0,-4.388731718E-2,-9.689009190E-2,-2.483348846E-1,2.701555135E-1
5.759700524E0,-1.325573623E-1,1.774470806E-1,-1.546382904E-1,2.701331553E-1
5.764715941E0,6.369614601E-1,-2.847983837E-1,-2.380199432E-1,7.372133439E-1
5.769731358E0,-5.856213570E-1,2.053999901E-1,3.840160370E-1,7.298012375E-1
5.774746826E0,3.439852595E-2,-1.327030659E-1,1.971416473E-1,2.401212015E-1
5.779762243E0,1.556150615E-1,-4.054312706E-1,-4.414491653E-1,6.192478729E-1
5.784777660E0,-6.263079047E-1,-1.229877472E-1,-6.154222488E-1,8.866409205E-1
5.789793076E0,-2.045476139E-1,-2.264502048E-1,3.849515915E-1,4.912302407E-1
5.794808493E0,7.713418007E-1,-1.405127048E-1,3.151931763E-1,8.450199596E-1
5.799823910E0,-3.740051389E-2,-8.066797256E-2,7.807826996E-2,1.183314687E-1
5.804839326E0,2.571358681E-1,-2.122232914E-1,-3.739328384E-1,5.009823826E-1
5.809854795E0,-2.442505062E-1,-1.869453192E-1,-4.980278015E-1,5.853533576E-1
5.814870212E0,-1.661189079E0,1.102086306E-1,5.832757950E-1,1.764059453E0
5.819885628E0,1.349414587E0,-3.583215475E-1,-1.874561310E-1,1.408706449E0
5.824901045E0,3.829819560E-1,-1.178810596E-1,-6.106472015E-1,7.303842328E-1
5.829916462E0,-4.676181674E-1,2.365398407E-2,-8.394336700E-2,4.756813538E-1
5.834931878E0,4.734553993E-1,-2.321844101E-1,2.413091660E-1,5.799135530E-1
5.839947295E0,-3.505299091E-1,1.771582365E-1,7.382574081E-1,8.362297882E-1
5.844962764E0,-3.966469765E-1,-2.843034267E-2,4.859256744E-2,4.006224481E-1
5.849978180E0,1.945438981E-2,-8.272576332E-2,-3.414173126E-1,3.518349138E-1
5.854993597E0,-4.687711596E-1,2.123873234E-1,4.239244461E-1,6.667583605E-1
5.860009014E0,2.940225005E-1,1.843696833E-1,7.579097748E-1,8.335878104E-1
5.865024430E0,5.106185675E-1,2.365853786E-1,2.304744720E-1,6.081302863E-1
5.870039847E0,-7.508804202E-1,2.797507048E-1,-2.772598267E-1,8.479120672E-1
5.875055264E0,-2.361985445E-1,1.988729239E-1,-1.077537537E-1,3.270337348E-1
5.880070680E0,-1.210682690E-1,3.764287233E-1,3.890838623E-1,5.547453122E-1
5.885086149E0,4.308378994E-1,1.753896475E-1,2.876491547E-1,5.469230844E-1
5.890101566E0,4.394657612E-1,1.569553614E-1,-2.226505280E-1,5.170477718E-1
5.895116983E0,-1.172574401E0,4.090658426E-1,-1.083135605E-1,1.246594327E0
5.900132399E0,-4.898618758E-1,3.419522047E-1,2.331953049E-1,6.413080522E-1
5.905147816E0,8.973466158E-1,2.102661133E-1,5.208969116E-3,9.216669250E-1
5.910163233E0,-1.462467015E-1,3.152365685E-1,1.505422592E-1,3.787151484E-1
5.915178649E0,-1.080969870E-1,1.277910471E-1,-2.445859909E-1,2.963744545E-1
5.920194066E0,-1.485958695E-1,1.894353628E-1,-2.949476242E-1,3.807369041E-1
5.925209535E0,-7.703398466E-1,2.165346146E-1,9.250259399E-2,8.055230900E-1
5.930224951E0,6.194465160E-1,-9.655117989E-2,-2.784042358E-1,6.859628526E-1
5.935240368E0,-1.708874106E-2,-1.001858711E-2,-2.399902344E-1,2.408063740E-1
5.940255785E0,-8.247258663E-1,8.540844917E-2,1.140804291E-1,8.369478491E-1
5.945271201E0,-1.801054478E-1,-8.677995205E-2,-2.496671677E-1,3.198475059E-1
5.950286618E0,-1.255443096E0,6.239569187E-2,-2.520284653E-1,1.282009726E0
5.955302035E0,-6.722115874E-1,1.271395683E-1,-8.932113647E-2,6.899356155E-1
5.960317451E0,7.255356312E-1,-6.678104401E-3,1.712284088E-1,7.454969599E-1
5.965332868E0,5.475623012E-1,6.308317184E-3,9.660053253E-2,5.560538925E-1
5.970348337E0,-1.781511307E-2,3.399705887E-2,-1.597042084E-1,1.642516741E-1
5.975363753E0,1.739034057E-1,5.956554413E-2,-5.616416931E-1,5.909584080E-1
5.980379170E0,-1.114118814E0,-9.809839725E-2,-1.981058121E-1,1.135838871E0
5.985394587E0,-2.156027317E0,1.477956772E-1,5.141620636E-1,2.221409458E0
5.990410003E0,-8.361939192E-1,-1.146067381E-1,5.083608627E-1,9.852845993E-1
5.995425420E0,-1.507050395E0,-2.202216387E-1,3.947725296E-1,1.573386098E0
6.000440837E0,-1.964981556E0,-1.534891129E-2,-3.896522522E-2,1.965427789E0
6.005456305E0,2.078290224E0,-4.709341526E-1,-6.991701126E-1,2.242745656E0
6.010471722E0,2.657091141E0,-2.866506577E-3,-6.650428772E-1,2.739055234E0
6.015487139E0,2.448106527E0,3.442269564E-1,-5.638465881E-1,2.535673627E0
6.020502555E0,1.833298564E0,-1.578248739E-1,-4.245634079E-1,1.888424317E0
6.025517972E0,-9.545767903E-1,-2.058275938E-1,-4.418468475E-2,9.775142625E-1
6.030533389E0,-2.673631668E0,4.921275377E-1,4.002275467E-1,2.747849686E0
6.035548805E0,-4.450749755E-1,-1.786563396E-1,-3.104400635E-2,4.805970785E-1
6.040564222E0,4.631869793E-1,-3.274952173E-1,-5.741329193E-1,8.071083596E-1
6.045579691E0,-1.793050170E-1,-1.927452087E-1,-3.317165375E-2,2.653325521E-1
6.050595108E0,3.026736379E-1,-3.311905861E-1,3.302536011E-1,5.571049958E-1
6.055610524E0,-6.574232578E-1,-2.421646118E-1,3.560333252E-1,7.858808865E-1
6.060625941E0,-1.293191075E0,-1.145724058E-1,1.760568619E-1,1.310139692E0
6.065641358E0,-6.512989402E-1,-1.517366171E-1,-1.496200562E-1,6.852740121E-1
6.070656774E0,-3.566586971E-1,6.747639179E-2,8.692359924E-2,3.732481772E-1
6.075672191E0,7.188376784E-2,2.410286665E-1,3.207511902E-1,4.076069432E-1
6.080687608E0,1.433995366E-1,-1.138420105E-1,-4.590797424E-2,1.887616819E-1
6.085703024E0,-9.206643105E-1,-1.954143047E-1,-3.739147186E-1,1.012729845E0
6.090718441E0,-1.272849798E0,-2.386816740E-1,-3.500337601E-1,1.341506311E0
6.095733910E0,-1.755549192E0,-9.801733494E-2,1.831283569E-1,1.767794208E0
6.100749326E0,-9.924493432E-1,-4.151868820E-2,4.765958786E-1,1.101736417E0
6.105764743E0,2.928677499E-1,1.606595516E-1,5.091133118E-1,6.089165581E-1
6.110780160E0,1.849683881E0,5.369400978E-2,2.357139587E-1,1.865415390E0
6.115795576E0,2.770295143E0,-6.215977669E-2,-4.845323563E-1,2.813035837E0
6.120810993E0,1.274228334E0,-5.048871040E-3,-6.181402206E-1,1.416255864E0
6.125826410E0,-1.360924840E-1,-9.786713123E-2,-7.206392288E-1,7.398783939E-1
6.130841826E0,-7.892861366E-1,3.176021576E-2,-3.256425858E-1,8.544146595E-1
6.135857295E0,-2.770632505E-1,1.603380442E-1,2.674665451E-1,4.171458809E-1
6.140872712E0,1.123632908E0,-2.141507864E-1,8.287715912E-2,1.146856615E0
6.145888128E0,7.767915726E-3,-8.815455437E-2,7.059478760E-2,1.132041961E-1
6.150903545E0,-1.283299804E0,-7.535350323E-2,1.030921936E-3,1.285510638E0
6.155918962E0,-4.686322808E-1,-3.980402946E-1,-2.667827606E-1,6.702427412E-1
6.160934378E0,-1.170134544E0,-2.325762510E-1,-5.869865417E-3,1.193038566E0
6.165949795E0,-1.155522943E0,-1.232495308E-1,6.117916107E-2,1.163686645E0
6.170965212E0,4.255539179E-2,-5.879126787E-1,-1.492195129E-1,6.080450166E-1
6.175980628E0,-8.573662043E-1,-1.261807680E-1,2.789592743E-2,8.670505044E-1
6.180996097E0,-4.654901028E-1,-1.216368675E-1,4.938411713E-2,4.836479653E-1
6.186011514E0,5.882185698E-1,-1.336464882E-1,-2.567682266E-1,6.555855336E-1
6.191026930E0,8.960113525E-1,-2.890490294E-1,-2.731647491E-1,9.803084542E-1
6.196042347E0,3.643990755E-1,-3.574504852E-1,-2.777252197E-1,5.811100010E-1
6.201057764E0,2.132060528E-1,-3.852641582E-1,-1.291961670E-1,4.588866332E-1
6.206073180E0,3.205061555E-1,-3.458986282E-1,2.199621201E-1,5.203396881E-1
6.211088597E0,-3.902284503E-1,-2.344971895E-1,4.299478531E-1,6.261967196E-1
6.216104014E0,-1.390821695E0,1.608455181E-2,5.773344040E-1,1.505974341E0
6.221119430E0,-9.386119843E-1,-2.601567507E-1,2.750797272E-1,1.012098240E0
6.226134847E0,-4.603567123E-1,-4.031898975E-1,-1.509284973E-2,6.121422957E-1
6.231150316E0,-1.950609922E0,-7.507419586E-2,3.048429489E-1,1.975713650E0
6.236165733E0,4.648871124E-1,-4.272233248E-1,-1.955871582E-1,6.609796766E-1
6.241181149E0,1.067656994E0,-1.215970516E-1,1.717090607E-2,1.074696301E0
6.246196566E0,4.250721037E-1,-1.649436951E-1,-1.720523834E-1,4.873343191E-1
6.251211983E0,5.117611289E-1,-2.518059015E-1,-7.123918533E-1,9.125830471E-1
6.256227399E0,8.978549242E-1,-1.447100639E-1,-6.376094818E-1,1.110689119E0
6.261242816E0,1.613235474E-2,-1.617753506E-2,-4.242420197E-1,4.248567485E-1
6.266258233E0,-3.578705192E-1,-2.715696096E-1,-1.774435043E-1,4.830192114E-1
6.271273649E0,-3.358994722E-1,9.102106094E-3,4.491500854E-1,5.609341343E-1
6.276289118E0,-1.587970495E0,-1.266388893E-1,1.519670486E-1,1.600244258E0
6.281304535E0,-1.738207340E0,-8.783662319E-2,2.640419006E-1,1.760340352E0
6.286319951E0,-8.286653757E-1,1.498897076E-1,3.471736908E-1,9.108692557E-1
6.291335368E0,-1.109252095E0,1.793051958E-1,4.493665695E-1,1.210173904E0
6.296350785E0,4.543597400E-1,2.898303270E-1,5.251359940E-1,7.524707330E-1
6.301366201E0,5.876846910E-1,1.737434864E-1,3.305511475E-1,6.962931539E-1
6.306381618E0,1.106284261E-1,3.090430498E-1,2.103347778E-1,3.898550680E-1
6.311397035E0,7.149034739E-1,8.130693436E-2,-3.928346634E-1,8.197663492E-1
6.316412451E0,-3.287965059E-2,1.656330824E-1,-4.119625092E-1,4.452285911E-1
6.321427868E0,4.055163264E-1,3.645328283E-1,-5.936012268E-1,8.060335541E-1
6.326443285E0,1.562155247E0,8.957886696E-2,-6.864557266E-1,1.708676345E0
6.331458753E0,9.365100265E-1,2.581043243E-1,-4.780874252E-1,1.082698692E0
6.336474170E0,-7.353821993E-1,4.264450073E-1,-4.349870682E-1,9.549115523E-1
6.341489587E0,-4.010387063E-1,1.401134729E-1,-3.752040863E-1,5.667820883E-1
6.346505003E0,-1.821408033E0,4.524583817E-1,-9.577751160E-3,1.876789158E0
6.351520420E0,-2.091547728E0,5.152912140E-1,3.101949692E-1,2.176308308E0
6.356535837E0,-8.258486390E-1,4.679175615E-1,5.578317642E-1,1.100976429E0
6.361551253E0,-8.118759990E-1,6.507275105E-1,5.491809845E-1,1.176515484E0
6.366566670E0,-8.219827414E-1,7.902327180E-1,7.581453323E-1,1.369272698E0
6.371582087E0,5.565636158E-1,6.863085032E-1,3.642120361E-1,9.557367981E-1
6.376597503E0,9.652245045E-2,9.180616140E-1,2.623748779E-1,9.596844727E-1
6.381612972E0,5.911343694E-1,8.675923944E-1,2.432823181E-2,1.050118216E0
6.386628389E0,1.225674629E0,5.904628038E-1,-4.525785446E-1,1.433789370E0
6.391643805E0,3.457760215E-1,6.251560450E-1,-3.192710876E-1,7.825056965E-1
6.396659222E0,-2.817368507E-1,6.831332445E-1,-1.716947556E-1,7.586341489E-1
6.401674639E0,-7.600682974E-2,1.321861744E-1,-2.703390121E-1,3.103762303E-1
6.406690055E0,-1.180037022E0,-8.938586712E-2,-2.276039124E-1,1.205106114E0
6.411705472E0,-1.753000736E0,-4.516865015E-1,-7.058410645E-1,1.942998684E0
6.416720889E0,-1.492749453E0,-9.273308516E-1,-9.465293884E-1,1.996036402E0
6.421736305E0,-5.779172778E-1,-3.628015518E-2,-1.062631607E-1,5.887244593E-1
6.426751774E0,-7.901398540E-1,4.827185869E-1,3.073740005E-1,9.756110901E-1
6.431767191E0,1.822154641E0,-1.672538519E-1,-1.079082489E-2,1.829846395E0
6.436782608E0,3.103755474E0,-1.464140415E-1,-2.377634048E-1,3.116290511E0
6.441798024E0,6.389562488E-1,-6.508827209E-5,1.000881195E-1,6.467478054E-1
6.446813441E0,2.308296919E0,-6.650786400E-1,-4.613838196E-1,2.446106967E0
6.451828858E0,-2.559010386E-1,-4.653244019E-1,-5.155181885E-2,5.335444973E-1
6.456844274E0,-2.445479870E0,-2.187225819E-1,6.208705902E-1,2.532526733E0
6.461859691E0,-4.974355102E-1,-6.298218966E-1,5.176639557E-1,9.550359570E-1
6.466875108E0,-2.505426884E0,-2.248084545E-1,9.428958893E-1,2.686401937E0
6.471890524E0,-1.725353241E0,-6.104040146E-1,3.563499451E-1,1.864516600E0
6.476905941E0,8.005249500E-2,-8.184303045E-1,-9.562301636E-2,8.278769997E-1
6.481921358E0,-9.886051416E-1,-5.745666027E-1,-1.739616394E-1,1.156602593E0
6.486936826E0,1.015888929E0,-9.338269234E-1,-5.533885956E-1,1.486708437E0
6.491952243E0,1.081148982E0,-4.620227814E-1,-9.801197052E-2,1.179811221E0
6.496967660E0,2.681748271E-1,-1.889048815E-1,2.443876266E-1,4.090575805E-1
6.501983076E0,1.679342747E0,-5.653781891E-1,-1.693954468E-1,1.780039150E0
6.506998493E0,-1.051652431E-1,-1.460815668E-1,6.742382050E-2,1.922121851E-1
6.512013910E0,-6.541460752E-1,-4.501590729E-1,1.654262543E-1,8.111202896E-1
6.517029326E0,1.067884088E0,-6.741285324E-1,1.841764450E-1,1.276223595E0
6.522044743E0,-1.713890195E0,-3.079191446E-1,7.883701324E-1,1.911481432E0
6.527060160E0,-1.721123457E0,-3.126511574E-1,7.222871780E-1,1.892542065E0
6.532075576E0,-2.491485476E-1,-2.366489172E-1,4.000110626E-1,5.273391309E-1
6.537090993E0,-1.938191652E0,-1.598620415E-2,5.633325577E-1,2.018461298E0
6.542106462E0,-1.949145794E-1,1.784884930E-2,5.543594360E-1,5.878985108E-1
6.547121878E0,9.608564377E-1,1.238842010E-1,5.165758133E-1,1.097926664E0
6.552137295E0,2.039705515E-1,1.581414938E-1,3.091001511E-1,4.026855117E-1
6.557152712E0,1.433858514E0,-2.208570242E-1,-4.456853867E-1,1.517683606E0
6.562168128E0,1.062150598E-1,2.645511627E-1,-5.899429321E-1,6.552111261E-1
6.567183545E0,6.396405697E-1,2.154567242E-1,-8.581781387E-1,1.091801894E0
6.572198962E0,1.081630468E0,-8.466863632E-2,-1.044785500E0,1.506210473E0
6.577214378E0,-5.329930186E-1,-1.210749149E-2,-7.097930908E-1,8.877130060E-1
6.582229795E0,-7.487660646E-2,-1.461708546E-2,-3.415880203E-1,3.500036300E-1
6.587245212E0,-5.543318391E-1,1.072303057E-1,-8.864498138E-2,5.715243293E-1
6.592260628E0,-1.339239955E0,2.716298103E-1,-1.539754868E-1,1.375156304E0
6.597276045E0,-5.949888825E-1,1.122131348E-1,-3.840770721E-1,7.170207496E-1
6.602291462E0,-3.869912624E-1,1.272048950E-1,-1.691036224E-1,4.410661602E-1
6.607306930E0,-1.484612226E-1,4.667022228E-1,5.885267258E-1,7.656470508E-1
6.612322347E0,3.310683370E-1,3.384906054E-1,5.467844009E-1,7.232947634E-1
6.617337764E0,4.028435349E-1,1.739735603E-1,2.350597382E-1,4.977979448E-1
6.622353180E0,2.019650340E-1,2.201007605E-1,-9.331703186E-3,2.988666934E-1
6.627368597E0,-7.286930084E-2,1.485927105E-1,-3.250675201E-1,3.647720127E-1
6.632384014E0,5.198752880E-2,-2.836692333E-2,-5.351390839E-1,5.384061892E-1
6.637399430E0,-5.016011000E-1,-3.089928627E-2,-4.436588287E-1,6.703667546E-1
6.642414847E0,-6.742017865E-1,-7.469928265E-2,8.872985840E-3,6.783854079E-1
6.647430264E0,-3.445701599E-1,-9.688854218E-2,7.826232910E-2,3.663891058E-1
6.652445680E0,-7.393100262E-1,-6.648468971E-2,-2.015647888E-1,7.691735128E-1
6.657461097E0,-2.419404387E-1,-2.633656263E-1,-5.336132050E-1,6.423703617E-1
6.662476566E0,2.045779824E-1,-7.426917553E-2,-3.010883331E-1,3.715134529E-1
6.667491983E0,-1.289918423E-1,3.557026386E-2,9.137535095E-2,1.620296078E-1
6.672507399E0,6.759776473E-1,-8.168995380E-2,3.804969788E-1,7.799980635E-1
6.677522816E0,3.033258021E-1,9.377276897E-2,5.638980865E-1,6.471328507E-1
6.682538233E0,-1.023140550E-1,1.256663799E-1,6.490135193E-1,6.689385271E-1
6.687553649E0,5.351855755E-1,-7.383775711E-2,2.078619003E-1,5.788628371E-1
6.692569066E0,-4.346885681E-1,-3.334403038E-2,7.557487488E-2,4.424675551E-1
6.697584483E0,-3.513265848E-1,-9.103751183E-2,3.194713593E-2,3.643333875E-1
6.702599899E0,-1.598824263E-1,-2.057076693E-1,7.396697998E-3,2.606391117E-1
6.707615316E0,-8.005292416E-1,-1.483355761E-1,6.898689270E-2,8.170738651E-1
6.712630733E0,-2.501732111E-2,-2.896984816E-1,-2.042055130E-1,3.553181224E-1
6.717646149E0,1.279377937E-1,-2.442110777E-1,-3.503675461E-1,4.458301772E-1
6.722661566E0,-8.504462242E-2,-1.656554937E-1,-2.978267670E-1,3.512479374E-1
6.727677035E0,6.728662848E-1,-3.242821693E-1,-2.954835892E-1,8.032549496E-1
6.732692451E0,2.319358885E-1,-9.773254395E-2,1.898527145E-1,3.152617321E-1
6.737707868E0,1.911273003E-1,-4.870569706E-2,3.805141449E-1,4.285941020E-1
6.742723285E0,3.154620826E-1,-1.623308659E-1,3.174705505E-1,4.760831714E-1
6.747738701E0,-1.891749501E-1,-1.011047363E-1,2.496881485E-1,3.291709297E-1
6.752754118E0,-7.378280163E-2,-1.546814442E-1,7.915687561E-2,1.887751624E-1
6.757769535E0,-2.093297839E-1,-1.914319992E-1,8.097457886E-2,2.949950020E-1
6.762784951E0,-5.190065503E-1,-1.804972887E-1,2.190952301E-1,5.915655419E-1
6.767800368E0,-1.490684152E-1,-2.437511683E-1,2.064008713E-1,3.524731821E-1
6.772815785E0,-1.932005286E-1,-2.158145905E-1,8.607006073E-2,3.021761689E-1
6.777831201E0,-2.204200029E-1,-2.070791721E-1,-1.106300354E-1,3.220337963E-1
6.782846618E0,3.309317231E-1,-3.106398582E-1,-3.477449417E-1,5.717862113E-1
6.787862035E0,6.630605459E-2,-2.321730852E-1,-2.713689804E-1,3.632381559E-1
6.792877451E0,1.474529505E-2,-1.780503988E-1,2.017974854E-2,1.797959691E-1
6.797892868E0,2.239844203E-1,-2.509951591E-1,9.859752655E-2,3.505553632E-1
6.802908337E0,-2.720293403E-1,-2.066512108E-1,2.175292969E-1,4.049983702E-1
6.807923753E0,-4.974294305E-1,-1.888546944E-1,1.402921677E-1,5.502581451E-1
6.812939170E0,8.114510775E-2,-2.833536863E-1,1.289272308E-2,2.950255283E-1
6.817954587E0,-5.774630904E-1,-2.200874090E-1,2.867698669E-3,6.179889255E-1
6.822970003E0,1.400465369E-1,-1.259860992E-1,1.291465759E-1,2.283952009E-1
6.827985420E0,1.702140570E-1,-2.469465733E-1,1.093730927E-1,3.192458436E-1
6.833000837E0,-1.131856441E-1,-1.502362490E-1,4.662132263E-2,1.937923328E-1
6.838016253E0,2.515932918E-1,-2.784719467E-1,-1.618852615E-1,4.087207451E-1
6.843031670E0,2.190322876E-1,-2.364434004E-1,-2.530384064E-1,4.097670798E-1
6.848047087E0,-2.033083439E-1,-1.513345242E-1,-1.814947128E-1,3.117318586E-1
6.853062503E0,3.597736359E-3,-2.724064589E-1,-7.168674469E-2,2.817041212E-1
6.858077920E0,-1.911079884E-2,-1.896567345E-1,4.983901978E-2,1.970249412E-1
6.863093337E0,-6.587421298E-1,-8.065986633E-2,1.066455841E-1,6.721759355E-1
6.868108753E0,-5.209439993E-2,-1.895563602E-1,-4.219913483E-2,2.010626947E-1
6.873124170E0,-2.518045902E-1,-1.735340357E-1,-1.311855316E-1,3.327600591E-1
6.878139639E0,-5.778917670E-1,-2.312779427E-3,1.171159744E-1,5.896442952E-1
6.883155055E0,2.703399658E-1,-9.669137001E-2,1.475172043E-1,3.227913315E-1
6.888170472E0,-1.789212227E-1,-2.099776268E-2,1.611452103E-1,2.417053759E-1
6.893185889E0,-2.399623394E-1,1.632428169E-2,4.964828491E-3,2.405681941E-1
6.898201305E0,3.441036046E-1,-6.345903873E-2,-1.366481781E-1,3.756422032E-1
6.903216722E0,-1.963235140E-1,6.261432171E-2,-1.322565079E-1,2.448576307E-1
6.908232139E0,-2.861827612E-2,4.262137413E-2,-1.541376114E-1,1.624622741E-1
6.913247555E0,-1.360642314E-1,1.114368439E-3,-1.018648148E-1,1.699739903E-1
6.918262972E0,-4.440149069E-1,1.104779243E-1,-4.254055023E-2,4.595261774E-1
6.923278389E0,-6.967893839E-1,7.381391525E-2,-9.564781189E-2,7.071862863E-1
6.928293805E0,-5.835629106E-1,6.591212749E-2,-1.343364716E-1,6.024420028E-1
6.933309222E0,-8.147160411E-1,1.802071333E-1,-3.434562683E-2,8.351146392E-1
6.938324639E0,-6.561928391E-1,1.745873690E-1,1.059532166E-2,6.791038598E-1
6.943340055E0,-3.950856328E-1,1.475614309E-1,-3.779029846E-2,4.234325682E-1
6.948355524E0,-4.519592524E-1,2.098306417E-1,-7.357311249E-2,5.036954108E-1
6.953370941E0,-2.163962126E-1,2.072589397E-1,-1.446228027E-1,3.327151094E-1
6.958386358E0,-1.186044216E-1,1.475591660E-1,-1.722698212E-1,2.559640748E-1
6.963401774E0,-2.354572415E-1,1.665185690E-1,-1.569013596E-1,3.283086704E-1
6.968417191E0,-8.815920353E-2,1.255421638E-1,-1.439199448E-1,2.103469291E-1
6.973432608E0,-1.037862897E-1,9.432756901E-2,-2.117309570E-1,2.539670891E-1
6.978448024E0,-4.042968750E-1,1.415873766E-1,-1.602325439E-1,4.573591767E-1
6.983463441E0,-4.078310728E-1,8.875513077E-2,-1.614046097E-1,4.474987209E-1
6.988478858E0,-4.209265113E-1,1.482747793E-1,-1.008958817E-1,4.575418200E-1
6.993494274E0,-7.663277984E-1,2.216180563E-1,-1.715946198E-2,7.979143466E-1
6.998509691E0,-6.150295734E-1,1.525615454E-1,3.387756348E-1,7.185438971E-1
7.003525108E0,-2.330619693E-1,2.558908463E-1,-3.339910507E-1,4.809865161E-1
7.008540524E0,-7.676177621E-1,6.174794436E-1,1.098175049E-1,9.912506122E-1
7.013555941E0,5.746223927E-1,2.692369223E-1,-1.006402969E-1,6.425012715E-1
7.018571358E0,-4.900866747E-1,3.303018808E-1,-2.832918167E-1,6.553918939E-1
7.023586774E0,1.544749141E-1,6.308079958E-1,1.741466522E-1,6.723899784E-1
7.028602191E0,-3.419192433E-1,3.372395039E-1,1.364717484E-1,4.992632472E-1
7.033617608E0,-2.875871062E-1,4.026072025E-1,4.675960541E-2,4.969762207E-1
7.038633076E0,-1.382747173E0,4.933741093E-1,2.545919418E-1,1.490041883E0
7.043648493E0,-8.398143649E-1,3.955602646E-1,1.402082443E-1,9.388367495E-1
7.048663910E0,-1.110668421E0,4.912056923E-1,9.078216553E-2,1.217829534E0
7.053679326E0,-1.505041838E0,5.407412052E-1,1.961221695E-1,1.611215656E0
7.058694743E0,-5.599899888E-1,4.380820990E-1,-1.576089859E-1,7.282481071E-1
7.063710160E0,-9.657987356E-1,5.930955410E-1,-2.070322037E-1,1.152124929E0
7.068725576E0,-8.461995125E-1,5.924358368E-1,-1.040573120E-1,1.038201214E0
7.073740993E0,-3.101012111E-1,4.896795750E-1,-1.538486481E-1,5.996817938E-1
7.078756410E0,-6.424762011E-1,6.608592272E-1,-6.197929382E-3,9.217098249E-1
7.083771826E0,-2.548263669E-1,6.143013239E-1,-3.069210052E-2,6.657661743E-1
7.088787243E0,9.618645906E-2,4.799786806E-1,-1.261281967E-1,5.055093380E-1
7.093802660E0,4.794090986E-2,5.647437572E-1,3.096485138E-2,5.676201760E-1
7.098818076E0,6.370323896E-2,3.488483429E-1,-1.098079681E-1,3.712291191E-1
7.103833493E0,3.077038527E-1,2.575159073E-1,-2.184553146E-1,4.568575576E-1
7.108848910E0,-1.269891262E-1,1.901049614E-1,-1.029081345E-1,2.507114251E-1
7.113864326E0,-1.183463335E-1,8.235704899E-2,-2.043170929E-1,2.500680160E-1
7.118879743E0,-1.208180189E-2,9.409511089E-2,-6.985282898E-2,1.178103457E-1
7.123895160E0,-3.149564266E-1,1.413124800E-1,5.161857605E-2,3.490433283E-1
7.128910628E0,8.293700218E-2,1.004755497E-1,2.244472504E-2,1.322030563E-1
7.133926045E0,3.107613325E-2,1.386804581E-1,1.097888947E-1,1.795872960E-1
7.138941462E0,6.991297007E-2,1.032940149E-1,6.338214874E-2,1.399098770E-1
7.143956878E0,2.392243743E-1,3.757679462E-2,6.002902985E-2,2.494870762E-1
7.148972295E0,1.672772765E-1,1.114845276E-3,2.038640976E-1,2.637110168E-1
7.153987712E0,8.443129063E-2,-8.240747452E-2,1.327648163E-1,1.776123057E-1
7.159003128E0,2.848914266E-1,-1.414668560E-1,1.500873566E-1,3.517132509E-1
7.164018545E0,1.133776903E-1,-1.523652077E-1,2.004594803E-1,2.761406533E-1
7.169033962E0,7.677423954E-2,-1.868457794E-1,1.791200638E-1,2.699807889E-1
7.174049378E0,3.833401203E-2,-1.851953268E-1,2.908401489E-1,3.469218900E-1
7.179064795E0,-1.491776109E-1,-1.572594643E-1,2.614984512E-1,3.396556178E-1
7.184080212E0,-1.493213773E-1,-2.054498196E-1,2.940454483E-1,3.885475875E-1
7.189095628E0,-1.799677014E-1,-2.269722223E-1,2.146673203E-1,3.605368520E-1
7.194111045E0,-2.256250381E-2,-2.436034679E-1,1.549234390E-1,2.895738043E-1
7.199126462E0,2.469253540E-2,-3.102124929E-1,1.930265427E-1,3.661977038E-1
7.204141878E0,2.762883306E-1,-3.884339333E-1,1.453409195E-1,4.983373807E-1
7.209157295E0,2.220370173E-1,-4.475455284E-1,8.864784241E-2,5.074011007E-1
7.214172712E0,3.940376639E-1,-5.469865799E-1,2.774333954E-2,6.747071158E-1
7.219188128E0,5.483995676E-1,-5.534029007E-1,-1.362705231E-2,7.792191943E-1
7.224203545E0,3.600165844E-1,-5.316729546E-1,8.071041107E-2,6.471493198E-1
7.229218962E0,5.222610235E-1,-5.509483814E-1,1.078701019E-1,7.667702750E-1
7.234234378E0,5.221413374E-1,-5.226511955E-1,1.798820496E-1,7.603639919E-1
7.239249795E0,2.375126481E-1,-4.566822052E-1,2.702589035E-1,5.813869361E-1
7.244265264E0,5.273774266E-1,-4.670389891E-1,2.007761002E-1,7.325048872E-1
7.249280680E0,3.329450488E-1,-3.961769342E-1,1.745119095E-1,5.461345762E-1
7.254296097E0,1.807725430E-1,-3.300724030E-1,1.720552444E-1,4.137988770E-1
7.259311514E0,8.218008280E-2,-3.399122953E-1,1.030092239E-1,3.645611536E-1
7.264326930E0,-5.110287666E-2,-3.371878862E-1,7.237911224E-2,3.486343507E-1
7.269342347E0,-2.047042847E-1,-3.292915821E-1,5.853176117E-2,3.921259457E-1
7.274357764E0,-1.167612076E-1,-3.686077595E-1,1.016454697E-1,3.997957747E-1
7.279373180E0,-1.029572487E-1,-3.958847523E-1,1.277837753E-1,4.285482766E-1
7.284388597E0,6.540930271E-2,-4.754204750E-1,7.298660278E-2,4.854173968E-1
7.289404014E0,2.251874804E-1,-4.906542301E-1,8.996677399E-2,5.473070393E-1
7.294419430E0,3.765046597E-1,-5.586113930E-1,4.757499695E-2,6.753264599E-1
7.299434847E0,5.054054260E-1,-5.836191177E-1,4.831600189E-2,7.735504866E-1
7.304450264E0,4.811576605E-1,-5.684413910E-1,4.676818848E-2,7.462074596E-1
7.309465680E0,4.119237065E-1,-5.248005390E-1,9.507369995E-2,6.738959520E-1
7.314481097E0,3.146676421E-1,-4.480593204E-1,1.904182434E-1,5.796826607E-1
7.319496514E0,8.520948887E-2,-3.714711666E-1,1.756553650E-1,4.196502018E-1
7.324511930E0,-1.040707827E-1,-3.447258472E-1,1.133499146E-1,3.775113782E-1
7.329527347E0,-2.632819414E-1,-2.891001701E-1,8.465957642E-2,4.000794083E-1
7.334542764E0,-3.761955500E-1,-2.787952423E-1,1.342391968E-2,4.684336459E-1
7.339558180E0,-3.787389994E-1,-2.946312428E-1,-5.489540100E-2,4.829744340E-1
7.344573597E0,-2.624691725E-1,-3.343234062E-1,-1.534795761E-1,4.519050638E-1
7.349589014E0,-4.991948605E-2,-3.742034435E-1,-1.727819443E-1,4.151792053E-1
7.354604430E0,8.941626549E-2,-4.072806835E-1,-1.893892288E-1,4.579750034E-1
7.359619847E0,2.821717262E-1,-4.051239491E-1,-2.318353653E-1,5.454300448E-1
7.364635264E0,3.070815802E-1,-4.034771919E-1,-2.429533005E-1,5.622448288E-1
7.369650680E0,3.030368686E-1,-3.666036129E-1,-2.586183548E-1,5.413991191E-1
7.374666097E0,1.091661453E-1,-2.874264717E-1,-1.245689392E-1,3.317358053E-1
7.379681566E0,-7.626354694E-2,-2.302849293E-1,8.399009705E-3,2.427299335E-1
7.384696983E0,-2.624680996E-1,-2.091579437E-1,1.069889069E-1,3.522544179E-1
7.389712399E0,-3.447103500E-1,-1.738574505E-1,1.643238068E-1,4.195878358E-1
7.394727816E0,-4.004384279E-1,-2.101206779E-1,1.428709030E-1,4.742507025E-1
7.399743233E0,-2.965202332E-1,-2.722291946E-1,2.423954010E-2,4.032623692E-1
7.404758649E0,-3.146330118E-1,-2.722866535E-1,-1.976013184E-2,4.165626203E-1
7.409774066E0,-1.310230494E-1,-3.556594849E-1,-1.108045578E-1,3.948903122E-1
7.414789483E0,1.123819351E-1,-4.407708645E-1,-3.031177521E-1,5.466159767E-1
7.419804899E0,-4.033219814E-2,-3.662714958E-1,-2.041530609E-1,4.212599757E-1
7.424820316E0,3.608649373E-1,-4.587261677E-1,-2.744750977E-1,6.449726964E-1
7.429835733E0,3.830318451E-1,-4.505720139E-1,-3.275461197E-1,6.760288415E-1
7.434851149E0,1.076953411E-1,-4.306976795E-1,-3.848304749E-1,5.875315073E-1
7.439866566E0,4.678783417E-1,-5.344936848E-1,-5.151348114E-1,8.774722307E-1
7.444881983E0,-5.142569542E-2,-5.233764648E-1,-4.638786316E-1,7.012495354E-1
7.449897399E0,-3.438856602E-1,-5.435431004E-1,-3.321666718E-1,7.238999565E-1
7.454912816E0,-2.502193451E-1,-7.017745972E-1,-3.437566757E-1,8.205278533E-1
7.459928233E0,-4.806822538E-1,-6.808147430E-1,-2.886676788E-1,8.819825238E-1
7.464943649E0,-7.431002855E-1,-6.268625259E-1,-1.769533157E-1,9.881635172E-1
7.469959066E0,-8.618000746E-1,-7.493643761E-1,-1.823053360E-1,1.156495384E0
7.474974483E0,-9.777138233E-1,-7.306318283E-1,-1.756896973E-1,1.233131809E0
7.479989899E0,-1.553483844E0,-6.031897068E-1,6.668090820E-3,1.666491626E0
7.485005316E0,-6.603614092E-1,-7.785072327E-1,-3.085384369E-1,1.066464565E0
7.490020733E0,-1.032952189E0,-6.053135395E-1,-8.466148376E-2,1.200234258E0
7.495036149E0,-1.754198432E0,-3.625197411E-1,3.606185913E-1,1.827205098E0
7.500051566E0,-5.138196945E-1,-6.227161884E-1,2.324972153E-1,8.401434907E-1
7.505066983E0,-8.725522757E-1,-5.857098103E-1,-1.333713531E-2,1.050990644E0
7.510082399E0,-1.098003864E0,-3.287484646E-1,-1.216316223E-1,1.152598061E0
7.515097816E0,7.228962183E-1,-6.152496338E-1,-3.572721481E-1,1.014275329E0
7.520113233E0,-5.134779215E-1,-2.769582272E-1,7.146930695E-2,5.877697655E-1
7.525128649E0,-1.179630756E-1,-2.322437763E-1,9.328365326E-2,2.766844752E-1
7.530144066E0,1.210248113E0,-4.530239105E-1,-4.717626572E-1,1.375678437E0
7.535159483E0,-1.180312157E0,2.652883530E-2,-1.230249405E-1,1.187002823E0
7.540174951E0,-1.419515610E-1,-1.823990345E-1,-1.663427353E-1,2.847622851E-1
7.545190316E0,5.474394560E-1,-9.003353119E-2,9.426879883E-2,5.627455918E-1
7.550205785E0,-1.582274079E0,2.429733276E-1,5.997905731E-1,1.709495841E0
7.555221201E0,1.001714706E0,-2.657597065E-1,4.531764984E-1,1.131118700E0
7.560236566E0,7.424303293E-1,-3.147840500E-3,2.149696350E-1,7.729324982E-1
7.565252035E0,1.751053333E-2,2.705528736E-1,4.395656586E-1,5.164527514E-1
7.570267451E0,2.203848124E0,-3.559496403E-1,-1.175022125E-2,2.232439196E0
7.575282868E0,1.364869952E0,5.874013901E-2,-4.415798187E-2,1.366846852E0
7.580298285E0,3.520436287E-1,3.604066372E-1,3.132019043E-1,5.932310625E-1
7.585313701E0,2.414821148E0,-1.402893066E-1,-2.702283859E-1,2.433940354E0
7.590329118E0,9.707417488E-1,2.334438562E-1,1.076412201E-1,1.004202275E0
7.595344535E0,4.012593627E-1,4.974807501E-1,4.394636154E-1,7.756445334E-1
7.600359951E0,8.924245834E-1,1.428717375E-1,4.312877655E-1,1.001420545E0
7.605375368E0,-9.864079952E-2,6.285395622E-1,5.508861542E-1,8.415863256E-1
7.610390785E0,-1.038457155E0,6.409440041E-1,2.110462189E-1,1.238443776E0
7.615406201E0,-2.585422993E-2,4.997811317E-1,2.251968384E-1,5.487834153E-1
7.620421618E0,-6.281023026E-1,8.715900183E-1,4.311075211E-1,1.157598962E0
7.625437035E0,-1.279362082E0,9.933593273E-1,7.808818817E-1,1.798139762E0
7.630452451E0,-1.460528374E-1,6.753116846E-1,3.004369736E-1,7.534186603E-1
7.635467868E0,-1.108110309E0,9.367741346E-1,2.125320435E-1,1.466500632E0
7.640483285E0,-7.473219633E-1,8.242696524E-1,-8.934974670E-3,1.112650174E0
7.645498701E0,4.144788980E-1,5.444855690E-1,-3.593006134E-1,7.728869404E-1
7.650514118E0,-9.211119413E-1,8.744744062E-1,-1.448631287E-3,1.270100309E0
7.655529535E0,-9.807873964E-1,6.796314716E-1,3.813934326E-2,1.193858226E0
7.660544951E0,2.708196640E-3,4.991266727E-1,-2.284116745E-1,5.489140760E-1
7.665560368E0,-1.425109029E0,6.291636229E-1,-1.932544708E-1,1.569754726E0
7.670575785E0,-3.213483095E-1,5.376068354E-1,-2.199878693E-1,6.638377122E-1
7.675591201E0,4.582640529E-1,2.920857668E-1,-5.142612457E-1,7.481875876E-1
7.680606618E0,-1.065798998E-1,4.977071285E-1,-1.169433594E-1,5.222522476E-1
7.685622035E0,3.618123531E-1,3.523150682E-1,-1.524782181E-1,5.275260119E-1
7.690637451E0,8.295977712E-1,2.782434225E-1,-2.213134766E-1,9.025693984E-1
7.695652868E0,-4.958844185E-2,3.449366093E-1,-2.110404968E-1,4.074044296E-1
7.700668285E0,2.240953445E-1,1.933767796E-1,-2.770595551E-1,4.054322377E-1
7.705683701E0,3.969767094E-1,2.933568954E-1,-6.090736389E-2,4.973514681E-1
7.710699118E0,4.613256454E-2,3.552186489E-1,1.644525528E-1,3.941486321E-1
7.715714535E0,1.213998795E-1,4.253019094E-1,3.797073364E-1,5.829213551E-1
7.720729951E0,-9.103254080E-1,5.830733776E-1,1.399755478E-1,1.090073422E0
7.725745368E0,-1.125525475E0,6.490706205E-1,1.257419586E-2,1.299329971E0
7.730760785E0,-1.345114231E0,6.570870876E-1,4.749011993E-2,1.497782043E0
7.735776201E0,-1.750952125E0,8.334939480E-1,2.686414719E-1,1.957731786E0
7.740791618E0,-8.393291235E-1,6.107451916E-1,3.986501694E-1,1.111937509E0
7.745807035E0,-7.303534746E-1,4.534097910E-1,2.398490906E-3,8.596524817E-1
7.750822451E0,-5.900653601E-1,4.443787336E-1,-6.324949265E-1,9.724707811E-1
7.755837868E0,-4.429914951E-1,3.079956770E-1,-8.623275757E-1,1.017207771E0
7.760853285E0,-6.333953142E-1,2.423378229E-1,-5.607614517E-1,8.799833238E-1
7.765868701E0,-6.509075165E-1,2.759064436E-1,2.116813660E-1,7.379796483E-1
7.770884118E0,-1.140110016E0,2.557320595E-1,5.339775085E-1,1.284671831E0
7.775899535E0,-5.794606209E-1,2.248935699E-1,4.321384430E-2,6.230723596E-1
7.780914951E0,-2.436031103E-1,2.031830549E-1,-3.345537186E-1,4.610336428E-1
7.785930368E0,-8.793450594E-1,3.195075989E-1,-2.061080933E-2,9.358192372E-1
7.790945785E0,-1.977763176E-1,1.815512180E-1,1.527786255E-3,2.684746742E-1
7.795961201E0,1.794139147E-1,1.946029663E-1,-4.337978363E-2,2.682190763E-1
7.800976618E0,-6.831527948E-1,2.197630405E-1,-4.611749649E-1,8.530392039E-1
7.805992035E0,3.703682423E-1,4.396224022E-2,-7.277507782E-1,8.177569985E-1
7.811007451E0,5.014675856E-1,-6.812810898E-3,-6.616516113E-1,8.302403318E-1
7.816022868E0,-1.065728664E-1,8.835422993E-2,-3.971614838E-1,4.205965882E-1
7.821038285E0,5.860663056E-1,-5.807042122E-2,-2.261285782E-1,6.308565782E-1
7.826053701E0,2.635909319E-1,-1.056704521E-1,-3.877410889E-1,4.806137491E-1
7.831069118E0,-3.884676695E-1,4.314637184E-2,-1.953296661E-1,4.369466994E-1
7.836084535E0,2.703194618E-1,-4.270935059E-2,1.332130432E-1,3.043721652E-1
7.841099951E0,8.157050610E-2,-9.667706490E-2,2.029953003E-1,2.391804638E-1
7.846115368E0,-4.658595324E-1,5.524492264E-2,3.635501862E-1,5.935030271E-1
7.851130785E0,8.220422268E-2,-1.036119461E-1,2.178344727E-1,2.548427497E-1
7.856146253E0,-4.302155972E-1,-9.658360481E-2,-5.928134918E-2,4.448911452E-1
7.861161618E0,-6.028045416E-1,-4.151678085E-2,-9.454345703E-2,6.115843554E-1
7.866177035E0,4.675984383E-2,-2.494897842E-1,-2.109794617E-1,3.300666125E-1
7.871192451E0,-2.679516077E-1,-1.124265194E-1,-1.432781219E-1,3.239851950E-1
7.876207868E0,-1.036669135E0,-2.220032215E-1,-3.257083893E-2,1.060673930E0
7.881223337E0,-8.399487734E-1,-2.240495682E-1,-7.953643799E-2,8.729479915E-1
7.886238701E0,-4.911797047E-1,-5.033051968E-1,-6.715393066E-1,9.723881240E-1
7.891254118E0,-3.351714611E-1,-3.882675171E-1,-4.854125977E-1,7.061989544E-1
7.896269587E0,9.695075750E-1,-5.247440338E-1,-9.783411026E-1,1.473924202E0
7.901284951E0,-4.210293293E-2,-3.851561546E-1,-1.100232124E0,1.166459878E0
7.906300368E0,-2.480357885E0,-1.098523140E-1,-5.257701874E-2,2.483345951E0
7.911315837E0,-1.101762533E0,-1.573576927E-1,2.620134354E-1,1.143369216E0
7.916331201E0,-3.124401569E0,-1.044065952E-1,2.107620239E-4,3.126145542E0
7.921346670E0,-8.100513220E-1,-4.534921646E-1,-5.337133408E-1,1.070835290E0
7.926362087E0,-1.724453449E0,-4.098269939E-1,-7.083168030E-1,1.908772002E0
7.931377503E0,-1.098424435E0,-2.404167652E-1,1.074924469E-1,1.129553490E0
7.936392920E0,-8.200972080E-1,-4.063606262E-3,2.766542435E-1,8.655134395E-1
7.941408285E0,-1.601384997E0,1.807212830E-4,3.642644882E-1,1.642291862E0
7.946423753E0,-8.084627390E-1,-2.858734131E-2,-2.844581604E-1,8.575229918E-1
7.951439118E0,-2.239257097E-1,1.179165840E-1,-5.404891968E-1,5.968045041E-1
7.956454587E0,-9.100304842E-1,2.625035048E-1,-3.707141876E-1,1.017100084E0
7.961470003E0,-8.700410128E-1,4.907459021E-1,4.736995697E-2,1.000023408E0
7.966485420E0,-6.963039637E-1,4.007495642E-1,5.844688416E-1,9.935005031E-1
7.971500837E0,3.875389695E-1,3.491702080E-1,1.095218658E-1,5.330115628E-1
7.976516253E0,-6.429204941E-1,4.100823402E-1,-7.523298264E-1,1.071221011E0
7.981531670E0,5.687322021E-1,3.582004309E-1,-5.753564835E-1,8.847592607E-1
7.986547087E0,-7.335230112E-1,5.928399563E-1,3.378562927E-1,1.001829375E0
7.991562503E0,-5.100643635E-2,7.830902338E-1,1.104166985E0,1.354627883E0
7.996577920E0,6.979914904E-1,5.876530409E-1,9.298572540E-1,1.302751983E0
8.001593337E0,6.561309695E-1,6.067316532E-1,4.547786713E-1,1.002723685E0
8.006608753E0,1.823244095E0,3.823566437E-1,-3.308410645E-1,1.892054820E0
8.011624118E0,-7.506878376E-1,6.607221365E-1,7.997512817E-2,1.003235761E0
8.016639535E0,-1.344921589E-1,6.639519930E-1,3.441286087E-1,7.598321454E-1
8.021655003E0,-3.675659895E-1,9.572397470E-1,1.329856873E0,1.679265313E0
8.026670368E0,-1.744675636E-1,1.063617468E0,1.180938721E0,1.598855000E0
8.031685785E0,1.076785922E0,6.090853214E-1,-1.303062439E-1,1.243958427E0
8.036701253E0,-1.065152049E0,9.089506865E-1,-7.728290558E-2,1.402395410E0
8.041716670E0,-2.805696726E-1,1.002105594E0,7.311878204E-1,1.271837486E0
8.046732087E0,8.302962780E-2,9.148948193E-1,7.690925598E-1,1.198094243E0
8.051747503E0,3.035593748E0,2.037718296E-1,-2.212247849E-1,3.050457796E0
8.056762868E0,1.459038973E0,2.176893950E-1,-1.513731956E0,2.113662185E0
8.061778337E0,4.173547268E0,2.995681763E-2,-1.267191887E0,4.361785126E0
8.066793753E0,-9.849650860E-1,6.773139238E-1,1.934223175E-1,1.210918067E0
8.071809170E0,-1.261123419E0,7.510030270E-1,1.580726624E0,2.157112534E0
8.076824587E0,-4.998557568E-1,2.370740175E-1,6.133747101E-1,8.260075074E-1
8.081839951E0,-1.584324718E0,4.597982168E-1,6.945009232E-1,1.789924787E0
8.086855420E0,5.754942298E-1,1.594066620E-1,-1.476840973E-1,6.151541961E-1
8.091870785E0,-2.143208504E0,5.932010412E-1,6.970090866E-1,2.330461721E0
8.096886201E0,1.288633704E0,-4.718542099E-2,8.233652115E-1,1.529945607E0
8.101901618E0,-3.773546219E-1,3.039047718E-1,9.877119064E-1,1.100149731E0
8.106917035E0,-5.387471914E-1,1.665904522E-1,7.340049744E-2,5.686726194E-1
8.111932451E0,-4.500881433E-1,-1.647076607E-1,-1.672417641E0,1.739738117E0
8.116947920E0,-3.534794807E0,2.262017727E-1,-9.258651733E-2,3.543234939E0
8.121963285E0,-9.906923771E-2,-1.962561607E-1,1.440134048E-1,2.628137273E-1
8.126978753E0,-1.821728349E0,3.229453564E-1,6.197805405E-1,1.951183179E0
8.131994118E0,2.549862862E0,-8.420403004E-1,-1.224326134E0,2.951238208E0
8.137009535E0,2.637861729E0,-1.111278534E-1,-1.026614189E0,2.832772598E0
8.142024951E0,2.298176765E0,-2.308976650E-1,-4.512042999E-1,2.353405086E0
8.147040368E0,2.413420200E0,1.826050282E-1,2.143449783E-1,2.429791232E0
8.152055785E0,-1.741833091E0,2.890570164E-1,5.704250336E-1,1.855511033E0
