"Time (s)","Linear Acceleration x (m/s^2)","Linear Acceleration y (m/s^2)","Linear Acceleration z (m/s^2)","Absolute acceleration (m/s^2)"
1.053680780E-1,7.382478714E-1,2.356333017E0,-1.197299957E0,2.744238036E0
1.103839630E-1,8.068031669E-1,1.976920843E0,-1.428619385E0,2.569066118E0
1.153998490E-1,3.133664131E-1,1.910612822E0,-1.536558151E0,2.471770785E0
1.204156300E-1,2.279320955E-1,2.073097229E0,-1.424444199E0,2.525614071E0
1.254315150E-1,6.365923882E-1,1.973934412E0,-1.245390892E0,2.419228267E0
1.304474010E-1,1.714739799E0,6.696914673E0,-5.292243958E-1,6.933186654E0
1.354631820E-1,6.586282253E-1,1.546777153E1,6.823959351E-1,1.549681940E1
1.404790670E-1,-6.121135235E0,1.154247761E0,2.545514107E0,6.729058368E0
1.454948490E-1,6.380494118E0,-3.253986359E0,9.505729675E-1,7.225145076E0
1.505107860E-1,3.829639435E0,5.940400124E0,-3.087191582E0,7.712667742E0
1.555265670E-1,-6.508890629E0,3.017268181E0,-4.916505814E-1,7.191055888E0
1.605424530E-1,4.524292648E-1,-3.091330051E0,-3.950716972E0,5.036782537E0
1.655583380E-1,3.993247032E0,5.743153095E-1,-2.049279213E0,4.524975716E0
1.705741200E-1,-1.213994265E0,4.032288551E0,-1.977863312E-1,4.215714942E0
1.755900050E-1,-1.202140570E0,7.132101059E-2,4.462337494E-2,1.205080861E0
1.806058900E-1,2.082713842E0,-2.242969990E0,-1.147140503E0,3.268721869E0
1.856216720E-1,5.866616964E-1,1.317456722E0,-2.239665985E-1,1.459460585E0
1.906375570E-1,-8.615543246E-1,3.005332470E0,-4.945716858E-1,3.165264643E0
1.956534420E-1,-2.764109373E-1,-6.022610664E-1,-1.346860886E0,1.501051513E0
2.006692240E-1,1.177657127E0,-6.054992676E-1,-1.296730995E0,1.853379871E0
2.056851090E-1,2.649205625E-1,2.277104378E0,5.952777863E-1,2.368489581E0
2.107009950E-1,-1.655840874E-1,1.144816399E0,6.775121689E-1,1.340539226E0
2.157167760E-1,1.165727854E0,-3.449044228E-1,-3.041172028E-1,1.253143153E0
2.207326610E-1,1.110719144E-1,2.015807629E0,-4.535598755E-1,2.069186779E0
2.257485470E-1,-1.105710506E0,3.461462975E0,5.383348465E-1,3.673435185E0
2.307643280E-1,9.577148557E-1,1.879009962E0,5.440587997E-1,2.178048705E0
2.357802130E-1,1.491681814E0,1.167968273E0,-1.729450226E-1,1.902412811E0
2.407960990E-1,-1.038765907E0,1.583167911E0,1.066207886E-3,1.893530137E0
2.458118800E-1,-3.428562880E-1,1.026553512E0,3.306093216E-1,1.131664734E0
2.508277650E-1,1.719004750E0,8.259145021E-1,-7.216720581E-1,2.039098491E0
2.558436510E-1,-5.184471607E-3,2.143902779E0,-6.829137802E-1,2.250048274E0
2.608594320E-1,-1.228822351E0,2.559203625E0,2.834739685E-1,2.853048379E0
2.658753170E-1,7.320882678E-1,1.330273747E0,5.336608887E-1,1.609464327E0
2.708912030E-1,1.172882557E0,7.374072075E-1,1.335144043E-5,1.385432381E0
2.759069840E-1,-4.722216129E-1,1.214416504E0,-2.647762299E-1,1.329626695E0
2.809228700E-1,-2.514272928E-1,1.554730654E0,-2.801074982E-1,1.599644742E0
2.859387550E-1,7.475669384E-1,1.428461313E0,-4.663457870E-1,1.678343363E0
2.909545360E-1,3.180120587E-1,1.774742723E0,-4.632091522E-1,1.861560130E0
2.959704220E-1,-3.809263706E-1,1.755479574E0,-9.099578857E-2,1.798636614E0
3.009863070E-1,1.154001355E-1,8.585443497E-1,1.098594666E-1,8.732036956E-1
3.060020880E-1,7.683976889E-1,7.447623014E-1,6.505584717E-2,1.072071899E0
3.110179740E-1,2.026073933E-1,1.522096515E0,-9.873771667E-2,1.538693177E0
3.160338590E-1,-3.817622662E-1,1.592634201E0,-1.208677292E-1,1.642204352E0
3.210496400E-1,2.843300700E-1,1.130675793E0,-1.284294128E-1,1.172930284E0
3.260655260E-1,6.408896446E-1,1.256893992E0,-1.663160324E-1,1.420627702E0
3.310814110E-1,-4.274475574E-2,1.334604025E0,-9.755229950E-2,1.338847067E0
3.360971920E-1,-6.727510691E-2,9.187326431E-1,-1.571846008E-2,9.213265868E-1
3.411130780E-1,5.117188692E-1,9.062085152E-1,-1.141986847E-1,1.046953396E0
3.461289630E-1,2.333009243E-1,1.415937185E0,-1.073217392E-1,1.439036271E0
3.511447450E-1,-1.234688759E-1,1.326576233E0,-5.335903168E-2,1.333377760E0
3.561606300E-1,2.609504461E-1,9.602583647E-1,-2.145957947E-2,9.953149129E-1
3.611765150E-1,3.429365158E-1,9.246834517E-1,1.228141785E-2,9.863040976E-1
3.661922970E-1,6.261453032E-2,1.078714371E0,9.985065460E-2,1.085133829E0
3.712081820E-1,8.094096184E-2,9.452713728E-1,4.438400269E-3,9.487408007E-1
3.762240670E-1,1.674335897E-1,9.319161773E-1,4.782676697E-3,9.468498521E-1
3.812398490E-1,1.138367653E-1,1.136075497E0,9.958744049E-2,1.146099473E0
3.862557340E-1,3.961047530E-2,1.089616537E0,1.222581863E-1,1.097169199E0
3.912716200E-1,1.341539919E-1,7.488039732E-1,-4.196071625E-2,7.618827899E-1
3.962874010E-1,1.255272627E-1,7.316927910E-1,-4.099941254E-2,7.435135412E-1
4.013032860E-1,1.743655801E-1,1.069478035E0,-1.165866852E-2,1.083661639E0
4.063191720E-1,1.440258920E-1,1.053854704E0,1.265239716E-2,1.063726129E0
4.113349530E-1,1.046158671E-1,8.494737148E-1,-9.573173523E-2,8.612285626E-1
4.163508380E-1,9.880900383E-2,9.431766272E-1,5.018234253E-2,9.496650129E-1
4.213667240E-1,7.200360298E-2,8.456465602E-1,1.208209991E-1,8.572632836E-1
4.263825050E-1,2.154894173E-1,6.635301113E-1,1.762752533E-1,7.195699150E-1
4.313983900E-1,1.636323631E-1,6.858208179E-1,1.338758469E-1,7.176687864E-1
4.364142760E-1,5.548614264E-2,8.367028236E-1,3.046607971E-1,8.921706835E-1
4.414300570E-1,1.356324852E-1,7.357563972E-1,3.028154373E-1,8.071126540E-1
4.464459950E-1,2.170616388E-1,6.111162901E-1,3.386545181E-1,7.316185876E-1
4.514617760E-1,1.558309793E-1,6.945549250E-1,2.980947495E-1,7.717190665E-1
4.564776610E-1,5.715098977E-2,6.978502274E-1,3.264608383E-1,7.725528166E-1
4.614935470E-1,1.871342659E-1,6.738429070E-1,2.004575729E-1,7.275072063E-1
4.665093280E-1,1.969868541E-1,6.943120956E-1,2.177782059E-1,7.538570513E-1
4.715252130E-1,9.335958958E-2,7.349133492E-1,1.542701721E-1,7.567119199E-1
4.765410990E-1,1.278080344E-1,6.726342440E-1,1.931838989E-1,7.114012501E-1
4.815568800E-1,1.454319656E-1,6.295430660E-1,7.295036316E-2,6.502281785E-1
4.865727650E-1,9.195855260E-2,7.097588778E-1,9.372043610E-2,7.218016072E-1
4.915886510E-1,6.748181581E-2,7.201346755E-1,5.265045166E-2,7.252032931E-1
4.966044320E-1,1.519738436E-1,6.947660446E-1,3.568935394E-2,7.120882220E-1
5.016203170E-1,1.506647766E-1,7.287533879E-1,1.417446136E-2,7.442998661E-1
5.066362030E-1,2.329307795E-2,6.983603239E-1,1.656436920E-2,6.989449820E-1
5.116519840E-1,1.107977331E-1,6.632276773E-1,2.128696442E-2,6.727556945E-1
5.166678700E-1,1.689251661E-1,6.926592588E-1,-2.431869507E-3,7.129645676E-1
5.216837550E-1,1.081432998E-1,7.528238893E-1,-1.874542236E-2,7.607826052E-1
5.266995360E-1,5.734813213E-2,6.772500277E-1,-4.437351227E-2,6.811207065E-1
5.317154220E-1,1.278926134E-1,5.737428665E-1,-4.132270813E-2,5.892749474E-1
5.367313070E-1,1.456086636E-1,7.178574204E-1,1.388835907E-2,7.326077023E-1
5.417470880E-1,1.349697709E-1,7.757160068E-1,-7.204055786E-3,7.874033659E-1
5.467629740E-1,8.868971467E-2,6.505065560E-1,-7.788276672E-2,6.611281043E-1
5.517788590E-1,1.402218938E-1,6.809205413E-1,-5.296802521E-2,6.972234755E-1
5.567946400E-1,1.697755456E-1,6.730962396E-1,-9.232521057E-2,7.002901028E-1
5.618105260E-1,7.348063588E-2,6.038678288E-1,-7.434082031E-2,6.128477104E-1
5.668264110E-1,1.178656518E-1,6.489845514E-1,-5.178928375E-2,6.616308561E-1
5.718421920E-1,1.359453201E-1,7.198775411E-1,2.042198181E-2,7.328859813E-1
5.768581300E-1,1.515208185E-1,6.383057237E-1,-1.950359344E-2,6.563331056E-1
5.818739110E-1,1.479202509E-1,5.863618255E-1,-4.714393616E-2,6.065666836E-1
5.868897970E-1,1.064607501E-1,6.133449674E-1,-1.124744415E-1,6.325950050E-1
5.919056820E-1,3.920719028E-2,6.359234452E-1,-6.086254120E-2,6.400313124E-1
5.969214630E-1,7.195803523E-2,6.182695031E-1,-1.140937805E-1,6.328131858E-1
6.019373490E-1,1.093913615E-1,6.821401119E-1,-7.182025909E-2,6.945788306E-1
6.069532340E-1,1.231438518E-1,6.987774968E-1,-1.271152496E-1,7.208416504E-1
6.119690150E-1,9.825742245E-2,6.808726788E-1,-1.865758896E-1,7.127781480E-1
6.169849010E-1,1.071389318E-1,6.477305889E-1,-2.881240845E-1,7.169722132E-1
6.220007860E-1,8.029949665E-2,7.159860730E-1,-3.008384705E-1,7.807610718E-1
6.270165670E-1,8.947721124E-2,7.493897080E-1,-3.323011398E-1,8.246303132E-1
6.320324530E-1,1.079777181E-1,7.268469930E-1,-2.660198212E-1,7.814936238E-1
6.370483380E-1,1.050218046E-1,7.244784832E-1,-2.310447693E-1,7.676459714E-1
6.420641200E-1,1.353768408E-1,6.900773644E-1,-2.057285309E-1,7.327058662E-1
6.470800570E-1,1.322379112E-1,6.689060330E-1,-2.493906021E-1,7.260288001E-1
6.520958380E-1,1.196891963E-1,6.349310279E-1,-2.545795441E-1,6.944592559E-1
6.571117240E-1,9.303438663E-2,6.661902666E-1,-2.382726669E-1,7.136096498E-1
6.621276090E-1,1.092965305E-1,6.840275526E-1,-2.101173401E-1,7.238706521E-1
6.671433900E-1,1.422586441E-1,6.740525961E-1,-1.868448257E-1,7.137894739E-1
6.721592760E-1,8.234298229E-2,6.387076974E-1,-1.565608978E-1,6.627512385E-1
6.771751610E-1,1.274768710E-1,6.137063503E-1,-1.193246841E-1,6.380628631E-1
6.821909420E-1,1.911134124E-1,5.986771584E-1,-1.463203430E-1,6.452505863E-1
6.872068280E-1,1.023557186E-1,6.272648573E-1,-1.611328125E-1,6.556688780E-1
6.922227130E-1,2.118802071E-2,6.157567501E-1,-1.544113159E-1,6.351756938E-1
6.972384950E-1,6.643477082E-2,5.905718207E-1,-9.071922302E-2,6.011810307E-1
7.022544320E-1,8.784452081E-2,5.825030804E-1,-6.075096130E-2,5.922137940E-1
7.072702130E-1,3.303763270E-2,5.508502126E-1,-3.577232361E-2,5.529982830E-1
7.122860990E-1,7.589986920E-2,4.814195037E-1,-3.000545502E-2,4.882887015E-1
7.173019840E-1,1.422283649E-1,5.097032189E-1,1.368141174E-2,5.293519247E-1
7.223177650E-1,9.388113022E-2,5.160535574E-1,3.796863556E-2,5.258959574E-1
7.273336510E-1,3.181633353E-2,4.814276099E-1,7.861709595E-2,4.888409460E-1
7.323495360E-1,1.031490564E-1,4.370686412E-1,1.022472382E-1,4.605683692E-1
7.373653170E-1,1.100113988E-1,4.997137189E-1,1.280431747E-1,5.274574517E-1
7.423812030E-1,7.166516781E-2,4.950888753E-1,1.013612747E-1,5.104145362E-1
7.473970880E-1,1.094474792E-1,4.716930985E-1,5.117321014E-2,4.869207609E-1
7.524128700E-1,1.352308691E-1,5.155834556E-1,-6.024742126E-2,5.364172251E-1
7.574288070E-1,8.932274580E-2,5.551201105E-1,-1.303062439E-1,5.771625483E-1
7.624445880E-1,6.749933958E-2,5.403437614E-1,-1.949644089E-1,5.783931726E-1
7.674604740E-1,1.103133559E-1,5.334301591E-1,-1.664056778E-1,5.695679246E-1
7.724763590E-1,1.242250204E-1,5.317613482E-1,-1.332883835E-1,5.621101141E-1
7.774921400E-1,9.760788083E-2,5.208116770E-1,-6.243801117E-2,5.335453181E-1
7.825080260E-1,9.984958172E-2,4.861813784E-1,-1.828575134E-2,4.966655216E-1
7.875239110E-1,1.353073716E-1,4.661731720E-1,6.518363953E-3,4.854564864E-1
7.925396920E-1,9.437918663E-2,4.914397597E-1,-6.874084473E-3,5.004675028E-1
7.975555780E-1,9.426033497E-2,4.596963525E-1,-1.062965393E-2,4.693812275E-1
8.025714630E-1,9.192222357E-2,4.353364110E-1,-1.671695709E-2,4.452493039E-1
8.075872450E-1,8.688294888E-2,4.587764144E-1,1.048469543E-2,4.670485778E-1
8.126031300E-1,6.778126955E-2,4.487851858E-1,1.858711243E-3,4.538787264E-1
8.176190150E-1,5.592834949E-2,4.200904965E-1,2.826690674E-3,4.238065546E-1
8.226347970E-1,8.216404915E-2,4.462968111E-1,-1.519680023E-2,4.540514479E-1
8.276507340E-1,7.019817829E-2,4.488940835E-1,-3.539752960E-2,4.557265271E-1
8.326665150E-1,7.484218478E-2,4.304325581E-1,-5.539226532E-2,4.403882863E-1
8.376824010E-1,7.212951779E-2,4.529210925E-1,-4.193496704E-2,4.605417732E-1
8.426982860E-1,9.133452177E-2,4.684994221E-1,-4.987812042E-2,4.799182537E-1
8.477140670E-1,9.570556879E-2,4.820488095E-1,-4.821586609E-2,4.938171528E-1
8.527299530E-1,9.796360135E-2,4.603993297E-1,-9.159183502E-2,4.795346434E-1
8.577458380E-1,8.363196254E-2,4.489574432E-1,-9.891986847E-2,4.672710470E-1
8.627616200E-1,1.214969158E-1,4.594187140E-1,-1.037578583E-1,4.864080062E-1
8.677775570E-1,1.378989816E-1,4.537534118E-1,-1.084613800E-1,4.864896286E-1
8.727933380E-1,5.915045738E-2,4.485681653E-1,-7.270336151E-2,4.582553375E-1
8.778092240E-1,8.090469241E-2,4.533950090E-1,-5.141258240E-2,4.634175839E-1
8.828251090E-1,1.119302511E-1,4.417890906E-1,-5.399799347E-2,4.589354693E-1
8.878408900E-1,8.078974485E-2,4.377231598E-1,-6.838703156E-2,4.503391317E-1
8.928567760E-1,3.590244055E-2,4.124365449E-1,-4.462909698E-2,4.163948188E-1
8.978726610E-1,1.052784324E-1,3.470010757E-1,-1.393222809E-2,3.628875885E-1
9.028884420E-1,1.385776103E-1,3.603093028E-1,2.363204956E-2,3.867622287E-1
9.079043800E-1,7.409489155E-2,3.944284320E-1,7.982635498E-2,4.091895500E-1
9.129201610E-1,4.564076662E-2,3.208394051E-1,1.402311325E-1,3.531087282E-1
9.179360470E-1,9.836390615E-2,3.044668436E-1,1.383790970E-1,3.486033439E-1
9.229519320E-1,7.932180166E-2,3.401629925E-1,1.270141602E-1,3.716657188E-1
9.279677130E-1,2.001938224E-2,3.228603601E-1,1.109380722E-1,3.419749167E-1
9.329835990E-1,8.213832974E-2,2.840728760E-1,9.259319305E-2,3.098670739E-1
9.379994840E-1,9.375742078E-2,3.236055374E-1,6.011199951E-2,3.422344960E-1
9.430152650E-1,5.078640580E-2,3.365079165E-1,1.038646698E-1,3.558155512E-1
9.480312030E-1,3.901326656E-2,3.136395216E-1,8.077716827E-2,3.262157804E-1
9.530469840E-1,9.639367461E-2,3.196554184E-1,5.792903900E-2,3.388614770E-1
9.580628700E-1,9.624084830E-2,3.925315738E-1,-1.926517487E-2,4.046164656E-1
9.630787550E-1,2.255350351E-2,4.085203409E-1,-7.671260834E-2,4.162719709E-1
9.680945360E-1,8.936673403E-2,3.919875622E-1,-1.430511475E-1,4.267367957E-1
9.731104220E-1,1.132273376E-1,4.360201359E-1,-1.493024826E-1,4.745789926E-1
9.781263070E-1,5.375233293E-2,4.547596574E-1,-1.885519028E-1,4.952246756E-1
9.831420880E-1,8.977186680E-2,4.177398086E-1,-2.130050659E-1,4.774271608E-1
9.881580260E-1,1.400198936E-1,4.466756582E-1,-2.583570480E-1,5.346710003E-1
9.931738070E-1,1.111568809E-1,5.150600076E-1,-2.959394455E-1,6.043366768E-1
9.981896920E-1,8.513796329E-2,5.159417987E-1,-3.328723907E-1,6.198777629E-1
1.003205578E0,1.471748948E-1,5.094370842E-1,-3.548860550E-1,6.380679466E-1
1.008221359E0,1.113884747E-1,5.290132761E-1,-3.952970505E-1,6.697179979E-1
1.013237245E0,5.708652735E-2,5.626938939E-1,-4.064273834E-1,6.964671621E-1
1.018253130E0,9.586843848E-2,5.368217230E-1,-4.526033401E-1,7.086734814E-1
1.023268911E0,8.693051338E-2,5.446668863E-1,-4.717454910E-1,7.257842238E-1
1.028284849E0,7.095441222E-2,5.786510706E-1,-4.593400955E-1,7.422027442E-1
1.033300630E0,8.129528165E-2,5.649485588E-1,-4.512329102E-1,7.275898131E-1
1.038316515E0,8.677822351E-2,5.322103500E-1,-4.450321198E-1,6.991651481E-1
1.043332401E0,5.205845833E-2,4.926037788E-1,-4.026699066E-1,6.383663679E-1
1.048348182E0,6.498518586E-2,4.932013750E-1,-3.601264954E-1,6.141349716E-1
1.053364067E0,7.790404558E-2,4.578373432E-1,-3.292131424E-1,5.692673944E-1
1.058379953E0,7.180780172E-2,4.863910675E-1,-3.193216324E-1,5.862584207E-1
1.063395734E0,2.544265985E-2,4.928847551E-1,-3.017578125E-1,5.784811909E-1
1.068411620E0,6.492835283E-2,4.607660770E-1,-2.979450226E-1,5.525326282E-1
1.073427505E0,1.208259165E-1,4.643452168E-1,-3.147706985E-1,5.738431624E-1
1.078443286E0,9.564194083E-2,4.941844940E-1,-3.756875992E-1,6.280978165E-1
1.083459224E0,7.780104876E-2,5.123871565E-1,-4.446039200E-1,6.828369110E-1
1.088475005E0,1.053960025E-1,5.502558947E-1,-5.308036804E-1,7.717787339E-1
1.093490890E0,2.185223848E-1,5.725613832E-1,-6.244430542E-1,8.749329678E-1
1.098506776E0,1.939213276E-2,6.010152102E-1,-7.348480225E-1,9.495245936E-1
1.103522557E0,3.118076921E-2,5.734341145E-1,-7.621355057E-1,9.542795466E-1
1.108538495E0,1.450863779E-1,4.971908331E-1,-6.951017380E-1,8.668420892E-1
1.113554276E0,2.130633891E-1,5.984668732E-1,-6.435823441E-1,9.042990875E-1
1.118570161E0,-6.822735071E-3,5.238475800E-1,-6.051425934E-1,8.004126405E-1
1.123586047E0,4.372790456E-2,4.883108139E-1,-5.724792480E-1,7.537188269E-1
1.128601828E0,1.200082302E-1,4.627172947E-1,-5.004501343E-1,6.920690768E-1
1.133617765E0,7.916897535E-2,4.445271492E-1,-4.795475006E-1,6.586637370E-1
1.138633547E0,1.495373249E-2,3.404304981E-1,-4.548540115E-1,5.683385523E-1
1.143649432E0,2.026334405E-2,2.404785156E-1,-3.411397934E-1,4.178718443E-1
1.148665317E0,-3.214995563E-1,-4.797363281E-1,-3.148031235E-1,6.577308840E-1
1.153681099E0,6.681099534E-1,2.846157551E-1,-3.152246475E-1,7.916714068E-1
1.158696984E0,4.662946761E-1,2.316532612E0,1.166353226E-1,2.365873594E0
1.163712870E0,-1.316284657E0,7.448625565E-2,-1.269378662E-1,1.324487343E0
1.168728651E0,-1.455982924E-1,-1.503319025E0,7.431821823E-1,1.683296382E0
1.173744588E0,1.794244528E0,6.394934654E-1,2.863578796E-1,1.926205117E0
1.178760370E0,-2.853231132E-1,4.753668308E-1,-6.549139023E-1,8.580764081E-1
1.183776255E0,-1.176732779E0,-1.149891138E0,-8.577642441E-1,1.855453896E0
1.188792140E0,4.978830516E-1,-4.131715298E-1,3.170108795E-1,7.204818831E-1
1.193807922E0,1.080677986E0,1.434784651E0,3.408517838E-1,1.828292056E0
1.198823807E0,-9.690120220E-1,-1.144223213E-1,9.884471893E-1,1.388922105E0
1.203839692E0,-1.820358634E-1,-1.355978966E0,9.626989365E-1,1.672903241E0
1.208855474E0,1.297000170E0,3.413269520E-1,8.565788269E-1,1.591364451E0
1.213871411E0,-5.534367561E-1,9.466791153E-2,2.853689194E-1,6.298330546E-1
1.218887192E0,-4.958371520E-1,-1.518640518E0,3.889808655E-1,1.644210941E0
1.223903078E0,8.124973774E-1,-3.255000114E-1,1.084591866E0,1.393715093E0
1.228918963E0,1.251332462E-1,4.654955864E-1,1.433858871E0,1.512711385E0
1.233934745E0,-5.362719297E-1,-9.292807579E-1,1.987660408E0,2.258748372E0
1.238950682E0,3.254494071E-1,-1.032752991E0,2.066246986E0,2.332782173E0
1.243966463E0,2.999675274E-1,-4.346346855E-1,1.623644829E0,1.707369426E0
1.248982349E0,-2.282417417E-1,-4.888043404E-1,1.482510567E0,1.577612613E0
1.253998234E0,2.477889359E-1,-1.011123657E0,9.786777496E-1,1.428838880E0
1.259014015E0,-2.200490236E-1,-7.139558792E-1,1.569450378E0,1.738197072E0
1.264029953E0,-2.833118439E-1,-5.969953537E-2,2.551072121E0,2.567449824E0
1.269045734E0,8.739470840E-1,6.302809715E-1,3.044266701E0,3.229333887E0
1.274061620E0,-1.334800720E-1,6.496334076E-2,2.278077126E0,2.282908793E0
1.279077505E0,-5.261192322E-1,3.045129776E-2,2.245164871E0,2.306186035E0
1.284093286E0,5.381125808E-1,6.334037781E-1,1.181240082E0,1.444331550E0
1.289109224E0,3.855388463E-1,-1.633052826E-1,1.167364120E-1,4.346679275E-1
1.294125005E0,-3.456634283E-1,-9.633646011E-1,-8.454046249E-1,1.327502746E0
1.299140890E0,-2.174029946E-1,-4.269847870E-1,-7.519440651E-1,8.916276955E-1
1.304156776E0,4.280281067E-1,2.237334251E-1,-3.657665253E-1,6.058463969E-1
1.309172557E0,6.366944313E-2,-2.401576042E-1,8.279800415E-2,2.618873467E-1
1.314188442E0,-1.254415512E-2,-3.335723877E-1,3.335437775E-1,4.718891238E-1
1.319204328E0,1.219333112E-1,1.589193344E-1,5.326080322E-1,5.690293518E-1
1.324220109E0,2.838995457E-1,3.243875504E-2,1.397724152E-1,3.180999102E-1
1.329236047E0,1.636055410E-1,-2.685089111E-1,-5.440216064E-1,6.283496771E-1
1.334251828E0,-2.325286865E-1,-1.238007545E-1,-6.403369904E-1,6.924071621E-1
1.339267713E0,1.965343952E-2,9.650897980E-2,-3.332929611E-1,3.475405571E-1
1.344283599E0,3.777434826E-1,6.626081467E-2,-4.848289490E-2,3.865633522E-1
1.349299380E0,1.152813435E-2,-4.858446121E-2,-1.075267792E-1,1.185552866E-1
1.354315317E0,-1.713196635E-1,7.898283005E-2,-6.309127808E-2,1.989201446E-1
1.359331099E0,2.617802322E-1,3.753981590E-1,-2.487764359E-1,5.209053492E-1
1.364346984E0,2.850300670E-1,4.624052048E-1,-6.603879929E-1,8.550865533E-1
1.369362870E0,-1.876884103E-1,5.615839958E-1,-7.418923378E-1,9.492142880E-1
1.374378651E0,-1.644912958E-1,5.736427307E-1,-2.854452133E-1,6.615151840E-1
1.379394588E0,3.972545266E-1,6.375164986E-1,5.823135376E-3,7.511806399E-1
1.384410370E0,1.436955929E-1,5.243024826E-1,-1.514625549E-2,5.438482562E-1
1.389426255E0,-1.564122438E-1,3.512411118E-1,-1.446075439E-1,4.107875976E-1
1.394442140E0,1.529083848E-1,4.004755020E-1,-3.317871094E-1,5.420740612E-1
1.399457922E0,2.151809335E-1,5.017399788E-1,-4.739584923E-1,7.229678367E-1
1.404473859E0,-1.089050770E-1,3.839516640E-1,-3.072767258E-1,5.036846059E-1
1.409489640E0,4.044228792E-2,2.191967964E-1,4.042530060E-2,2.265326006E-1
1.414505526E0,2.844758630E-1,4.273886681E-1,3.131799698E-1,6.013894609E-1
1.419521411E0,2.693367004E-2,4.221186638E-1,4.178581238E-1,5.945712745E-1
1.424537192E0,6.360930204E-2,2.402324677E-1,4.196348190E-1,4.876998700E-1
1.429553130E0,2.005023360E-1,3.021311760E-1,2.902069092E-1,4.644399686E-1
1.434568911E0,6.242948771E-2,2.747688293E-1,3.111400604E-1,4.197659916E-1
1.439584797E0,8.466705680E-2,1.675529480E-1,3.742523193E-1,4.186971452E-1
1.444600682E0,1.186252832E-1,2.799749374E-2,5.291585922E-1,5.430143950E-1
1.449616463E0,6.196147203E-2,9.681224823E-2,7.180461884E-1,7.271878465E-1
1.454632401E0,5.534306169E-2,1.650705338E-1,8.902139664E-1,9.070788508E-1
1.459648182E0,6.999757886E-2,5.858564377E-2,1.028985023E0,1.033025710E0
1.464664067E0,1.417073011E-1,1.525878906E-5,1.012895584E0,1.022760199E0
1.469679953E0,-2.031606436E-2,3.063201904E-3,1.013978958E0,1.014187090E0
1.474695734E0,8.270472288E-2,-1.061739922E-1,9.489297867E-1,9.584261724E-1
1.479711672E0,2.211146951E-1,-7.836675644E-2,7.541184425E-1,7.897643207E-1
1.484727453E0,-5.593419075E-2,-1.286115646E-1,5.278873444E-1,5.462001617E-1
1.489743338E0,-2.927976847E-2,-1.227288246E-1,4.160523415E-1,4.347634070E-1
1.494759224E0,1.451904774E-1,-8.679151535E-2,3.206605911E-1,3.625413860E-1
1.499775005E0,9.213262796E-2,-1.543569565E-1,1.797099113E-1,2.541852541E-1
1.504790942E0,4.653507471E-2,-1.723275185E-1,1.174807549E-1,2.136914003E-1
1.509806724E0,9.891927242E-2,-1.645498276E-1,2.406311035E-2,1.934959986E-1
1.514822609E0,1.464907229E-1,-1.573014259E-1,-3.597021103E-2,2.179383550E-1
1.519838495E0,9.846878052E-2,-2.032122612E-1,-6.283330917E-2,2.343914431E-1
1.524854276E0,1.340232193E-1,-2.593388557E-1,-5.915164948E-2,2.978553056E-1
1.529870213E0,1.599738002E-1,-3.015270233E-1,-8.449411392E-2,3.516381916E-1
1.534885995E0,1.143451631E-1,-3.179974556E-1,-1.316761971E-1,3.626786718E-1
1.539901880E0,1.189385653E-1,-3.732609749E-1,-1.672267914E-1,4.259518018E-1
1.544917765E0,1.401821375E-1,-3.740305901E-1,-2.125930786E-1,4.524883767E-1
1.549933547E0,9.214055538E-2,-3.753733635E-1,-2.438831329E-1,4.570273805E-1
1.554949484E0,7.081571221E-2,-3.846859932E-1,-1.992359161E-1,4.389682548E-1
1.559965265E0,8.985948563E-2,-3.972663879E-1,-1.100211143E-1,4.219004097E-1
1.564981203E0,1.015520394E-1,-3.128952980E-1,-3.842830658E-2,3.311993644E-1
1.569996984E0,4.651200771E-2,-3.014302254E-1,3.702545166E-2,3.072367681E-1
1.575012870E0,7.778963447E-2,-3.194613457E-1,9.098052979E-3,3.289218040E-1
1.580028755E0,1.347519755E-1,-3.497557640E-1,-1.168589592E-1,3.926107560E-1
1.585044536E0,5.092152953E-2,-2.969455719E-1,-1.854572296E-1,3.537853288E-1
1.590060474E0,-3.985106945E-2,-3.499069214E-1,-1.301217079E-1,3.754392364E-1
1.595076255E0,1.607617438E-1,-2.121515274E-1,-8.235406876E-2,2.786302236E-1
1.600092140E0,-6.826281548E-3,-2.065358162E-1,-5.649089813E-2,2.142308639E-1
1.605108026E0,-2.826416492E-2,-2.370524406E-1,-9.410858154E-3,2.389169037E-1
1.610123807E0,1.531763673E-1,-5.677556992E-2,-8.372592926E-2,1.835660537E-1
1.615139745E0,-1.514554024E-4,1.761045456E-1,-6.189346313E-2,1.866644977E-1
1.620155526E0,-6.929713488E-2,3.083786964E-1,7.469558716E-2,3.247752208E-1
1.625171411E0,1.191576123E-1,2.879929543E-1,2.183408737E-1,3.805406882E-1
1.630187297E0,1.711614728E-1,9.198617935E-2,3.758811951E-2,1.979155721E-1
1.635203078E0,1.230450273E-1,8.482074738E-2,-2.915883064E-1,3.276558841E-1
1.640219015E0,2.038945854E-1,1.979689598E-1,-7.798800468E-1,8.300467447E-1
1.645234797E0,1.388291717E-1,3.521218300E-1,-1.037889481E0,1.104752414E0
1.650250734E0,4.566949606E-2,3.720808029E-1,-8.114595413E-1,8.938659933E-1
1.655266515E0,1.727610528E-1,4.364609718E-1,-3.269414902E-1,5.720448403E-1
1.660282401E0,3.372755051E-1,4.333615303E-1,-1.314702034E-1,5.646604260E-1
1.665298286E0,1.842548847E-1,3.109622002E-1,-2.595953941E-1,4.450136190E-1
1.670314067E0,8.459463716E-2,3.543658257E-1,-6.191673279E-1,7.184007036E-1
1.675330005E0,1.498208642E-1,4.608173370E-1,-8.536138535E-1,9.815577009E-1
1.680345786E0,8.838546276E-2,4.196476936E-1,-9.396958351E-1,1.032930026E0
1.685361672E0,1.515108347E-2,3.476190567E-1,-6.920776367E-1,7.746225011E-1
1.690377557E0,7.602524757E-2,3.565363884E-1,-3.960704803E-1,5.383027586E-1
1.695393338E0,1.127742529E-1,3.986978531E-1,-2.807717323E-1,5.005105152E-1
1.700409276E0,5.878916383E-2,3.598051071E-1,-3.883166313E-1,5.326402980E-1
1.705425057E0,-1.177608967E-2,3.785037994E-1,-5.390176773E-1,6.587441529E-1
1.710440995E0,1.829767227E-2,3.637490273E-1,-5.943579674E-1,6.970721290E-1
1.715456776E0,4.109567404E-2,2.938575745E-1,-5.309247971E-1,6.082123549E-1
1.720472661E0,1.751422882E-3,2.427339554E-1,-4.709420204E-1,5.298199951E-1
1.725488547E0,-1.571834087E-3,2.579808235E-1,-3.595066071E-1,4.424947192E-1
1.730504328E0,8.825477958E-2,3.037395477E-1,-3.446316719E-1,4.677794440E-1
1.735520265E0,1.110884249E-1,3.444604874E-1,-3.875417709E-1,5.302662442E-1
1.740536047E0,6.233906746E-2,4.042854309E-1,-4.472413063E-1,6.061003671E-1
1.745551932E0,1.904829443E-1,3.902845383E-1,-5.568680763E-1,7.061924860E-1
1.750567817E0,2.277578712E-1,4.510188103E-1,-6.777329445E-1,8.453481881E-1
1.755583599E0,1.241361499E-1,4.383678436E-1,-8.024778366E-1,9.227929498E-1
1.760599536E0,1.354492605E-1,4.551563263E-1,-8.211917877E-1,9.486146403E-1
1.765615317E0,1.781314015E-1,4.985713959E-1,-7.820453644E-1,9.444041428E-1
1.770631255E0,1.315741539E-1,4.490175247E-1,-6.671519279E-1,8.148743403E-1
1.775647036E0,1.186718941E-1,3.974103928E-1,-5.956187248E-1,7.257959108E-1
1.780662922E0,1.130820811E-1,3.535470963E-1,-6.118350029E-1,7.156292176E-1
1.785678807E0,7.688605785E-2,3.435969353E-1,-6.934456825E-1,7.777128226E-1
1.790694588E0,4.105007648E-2,3.315505981E-1,-7.781233788E-1,8.468098373E-1
1.795710526E0,3.389370441E-2,3.101329803E-1,-7.684893608E-1,8.294016798E-1
1.800726307E0,5.542910099E-2,2.837100029E-1,-6.964154243E-1,7.540279798E-1
1.805742245E0,6.033807993E-2,2.449626923E-1,-5.553603172E-1,6.099774475E-1
1.810758026E0,7.462835312E-2,2.295155525E-1,-5.096721649E-1,5.639259664E-1
1.815773911E0,9.353354573E-2,2.397975922E-1,-5.557761192E-1,6.124855134E-1
1.820789797E0,5.301260948E-2,2.281136513E-1,-6.309714317E-1,6.730312937E-1
1.825805578E0,5.585569143E-2,2.049798965E-1,-6.556844711E-1,6.892450522E-1
1.830821515E0,9.937942028E-2,1.953206062E-1,-6.598434448E-1,6.952839564E-1
1.835837297E0,1.358204186E-1,1.487092972E-1,-6.316108704E-1,6.629433858E-1
1.840853234E0,1.149029136E-1,1.270847321E-1,-6.188874245E-1,6.421641946E-1
1.845869015E0,1.394819617E-1,8.961009979E-2,-6.168422699E-1,6.387327873E-1
1.850884901E0,1.043025255E-1,1.153407097E-1,-5.485730171E-1,5.701884349E-1
1.855900786E0,-6.695914268E-2,5.767869949E-2,-4.674811363E-1,4.757614654E-1
1.860916567E0,1.974372268E-1,7.103729248E-2,-2.217721939E-1,3.053042113E-1
1.865932505E0,6.086314917E-1,1.538467407E-2,-3.573594093E-1,7.059566051E-1
1.870948286E0,2.281471491E-1,-1.728372574E-1,-9.197325706E-1,9.632402819E-1
1.875964224E0,-2.340611219E-1,-1.668577194E-1,-1.017571926E0,1.057392421E0
1.880980005E0,-2.410846949E-2,-1.838541031E-2,-5.889062881E-1,5.896862368E-1
1.885995890E0,3.453046978E-1,-3.632497787E-2,-2.374143600E-1,4.206190874E-1
1.891011776E0,2.308571339E-1,-2.487559319E-1,-1.517295837E-2,3.397127442E-1
1.896027557E0,1.025949717E-1,-2.869558334E-1,-3.123636246E-1,4.363947897E-1
1.901043495E0,2.030658722E-2,-1.032590866E-1,-7.374505997E-1,7.449215955E-1
1.906059276E0,-3.559011221E-2,-1.476993561E-1,-8.727719784E-1,8.858965414E-1
1.911075161E0,3.019285202E-2,-3.536891937E-1,-6.247768402E-1,7.185775909E-1
1.916091047E0,9.809023142E-2,-3.940744400E-1,-2.528519630E-1,4.783831863E-1
1.921106828E0,2.135564685E-1,-3.216247559E-1,-1.006093025E-1,3.989625052E-1
1.926122765E0,1.258164048E-1,-2.892503738E-1,-3.482608795E-1,4.698735859E-1
1.931138547E0,2.139216661E-2,-3.948583603E-1,-6.531746387E-1,7.635495126E-1
1.936154484E0,-2.767556906E-2,-5.000638962E-1,-6.981539726E-1,8.592140635E-1
1.941170265E0,6.977498531E-3,-5.121059418E-1,-4.915649891E-1,7.098854271E-1
1.946186151E0,1.751223803E-1,-4.839153290E-1,-3.064374924E-1,5.989539468E-1
1.951202036E0,1.994586885E-1,-4.970741272E-1,-1.909790039E-1,5.686294367E-1
1.956217817E0,2.047446370E-1,-5.253467560E-1,-1.714351177E-1,5.893212876E-1
1.961233755E0,1.237646937E-1,-6.068868637E-1,-2.211241722E-1,6.576665297E-1
1.966249536E0,1.240231395E-1,-6.819887161E-1,-3.232669830E-1,7.648476256E-1
1.971265474E0,1.005696654E-1,-7.197990417E-1,-3.251228333E-1,7.961970703E-1
1.976281255E0,1.796712279E-1,-6.537513733E-1,-2.084834576E-1,7.093221837E-1
1.981297192E0,2.487924695E-1,-7.302398682E-1,-5.784153938E-2,7.736236822E-1
1.986312974E0,1.221032143E-1,-7.722511292E-1,8.350670338E-2,7.862915305E-1
1.991328859E0,1.650484800E-1,-8.274841309E-1,2.506947517E-2,8.441560674E-1
1.996344745E0,1.696451902E-1,-7.550411224E-1,-1.084131002E-1,7.814217731E-1
2.001360526E0,8.345478773E-2,-7.773513794E-1,-1.876831055E-1,8.040303581E-1
2.006376463E0,1.022230983E-1,-8.106498718E-1,-1.056286097E-1,8.238690307E-1
2.011392245E0,1.901538372E-1,-7.427234650E-1,-8.718502522E-2,7.716202796E-1
2.016408182E0,1.631402969E-1,-7.433671951E-1,-1.316754222E-1,7.723651728E-1
2.021423963E0,1.526266932E-1,-7.216987610E-1,-3.269326091E-1,8.068636440E-1
2.026439901E0,1.231304407E-1,-7.471446991E-1,-5.645139217E-1,9.444904842E-1
2.031455682E0,1.504510641E-2,-7.672204971E-1,-5.725191832E-1,9.574089312E-1
2.036471567E0,9.560406208E-2,-7.748718262E-1,-5.119339824E-1,9.336181693E-1
2.041487453E0,2.139411569E-1,-8.227643967E-1,-4.263070524E-1,9.510256431E-1
2.046503234E0,1.431254148E-1,-8.416357040E-1,-3.512940109E-1,9.231700953E-1
2.051519172E0,1.820747256E-1,-8.244924545E-1,-3.561823964E-1,9.164087040E-1
2.056534953E0,1.731905341E-1,-8.408231735E-1,-4.454375505E-1,9.671572683E-1
2.061550890E0,8.318358660E-2,-8.166122437E-1,-5.093022585E-1,9.660040663E-1
2.066566672E0,1.723630428E-1,-9.120311737E-1,-5.386410952E-1,1.073146826E0
2.071582609E0,1.896102428E-1,-9.381694794E-1,-5.147910118E-1,1.086795198E0
2.076598390E0,1.303821802E-1,-9.668722153E-1,-4.238851070E-1,1.063729278E0
2.081614276E0,1.379224062E-1,-1.014810562E0,-3.763839006E-1,1.091113151E0
2.086630161E0,2.165908217E-1,-1.003116608E0,-3.245766163E-1,1.076338466E0
2.091645942E0,1.853965521E-1,-1.091899872E0,-2.953448296E-1,1.146231120E0
2.096661880E0,1.041736007E-1,-1.149539948E0,-2.648112774E-1,1.184237832E0
2.101677661E0,1.948592067E-1,-1.118748665E0,-2.498047352E-1,1.162742917E0
2.106693599E0,1.606162786E-1,-1.128746986E0,-1.426849365E-1,1.149011027E0
2.111709380E0,1.810934544E-1,-1.079347610E0,-2.154331207E-1,1.115436028E0
2.116725317E0,1.702999473E-1,-1.006793976E0,-3.787817955E-1,1.089087614E0
2.121741099E0,2.597359419E-1,-9.376296997E-1,-6.204080582E-1,1.153914369E0
2.126756984E0,1.433069110E-1,-1.046509743E0,-8.562002182E-1,1.359705235E0
2.131772870E0,5.627614260E-2,-1.091890335E0,-9.193601608E-1,1.428500827E0
2.136788651E0,1.318828464E-1,-1.064165115E0,-8.803148270E-1,1.387369696E0
2.141804588E0,1.831141114E-1,-1.132747650E0,-6.876430511E-1,1.337722311E0
2.146820370E0,1.549117565E-1,-1.285035133E0,-4.524655342E-1,1.371144779E0
2.151836307E0,1.887381673E-1,-1.310591698E0,-3.422203064E-1,1.367621085E0
2.156852088E0,2.033402920E-1,-1.304800987E0,-2.427277565E-1,1.342672579E0
2.161867974E0,1.914722919E-1,-1.398691177E0,-2.380957603E-1,1.431673231E0
2.166883859E0,1.700731516E-1,-1.431738853E0,-1.754908562E-1,1.452445545E0
2.171899640E0,1.655813456E-1,-1.479968548E0,-6.282758713E-2,1.490527219E0
2.176915578E0,2.014326155E-1,-1.523633957E0,1.040573120E-1,1.540410159E0
2.181931359E0,2.320511043E-1,-1.526551247E0,3.010087013E-1,1.573153731E0
2.186947297E0,2.120477855E-1,-1.479181767E0,3.323302269E-1,1.530812314E0
2.191963078E0,2.351483703E-1,-1.419929028E0,2.058687210E-1,1.453917167E0
2.196979015E0,2.056472600E-1,-1.422477722E0,6.270265579E-2,1.438633132E0
2.201994797E0,1.715924144E-1,-1.433804989E0,4.844331741E-2,1.444848593E0
2.207010734E0,1.352649927E-1,-1.434435844E0,1.244959831E-1,1.446168061E0
2.212026515E0,1.635597944E-1,-1.409438133E0,2.592635155E-1,1.442388723E0
2.217042453E0,1.745596230E-1,-1.446614265E0,4.093885422E-1,1.513526635E0
2.222058234E0,1.833605170E-1,-1.410753727E0,4.521241188E-1,1.492736874E0
2.227074120E0,8.973348141E-2,-1.414122581E0,5.767068863E-1,1.529831888E0
2.232090005E0,1.040282845E-1,-1.670843601E0,7.755689621E-1,1.845006081E0
2.237105786E0,3.014834523E-1,-1.445355415E0,1.031035900E0,1.800827470E0
2.242121724E0,2.190017700E-1,-1.362691879E0,1.257835388E0,1.867361989E0
2.247137505E0,1.412255168E-1,-1.341759205E0,1.139124870E0,1.765748533E0
2.252153442E0,3.168685436E-1,-1.255933762E0,8.361401558E-1,1.541721650E0
2.257169224E0,1.555728316E-1,-1.177017212E0,7.317814827E-1,1.394660016E0
2.262185161E0,1.264575720E-1,-1.149891376E0,6.272854805E-1,1.315951659E0
2.267200942E0,1.841462255E-1,-1.109376431E0,7.112731934E-1,1.330614690E0
2.272216880E0,1.913665831E-1,-1.121029377E0,9.709081650E-1,1.495322941E0
2.277232661E0,2.603362799E-1,-1.162322044E0,1.279011726E0,1.747752417E0
2.282248547E0,2.050418854E-1,-1.170523643E0,1.494550705E0,1.909410795E0
2.287264432E0,2.410047650E-1,-1.157168865E0,1.553293705E0,1.951882274E0
2.292280213E0,2.316054702E-1,-1.152793407E0,1.591788292E0,1.978980470E0
2.297296151E0,2.199646831E-1,-1.101764202E0,1.667358398E0,2.010560332E0
2.302311932E0,1.538420618E-1,-1.127716541E0,1.727272987E0,2.068546337E0
2.307327870E0,1.955201030E-1,-1.224858761E0,1.878910065E0,2.251401814E0
2.312343651E0,1.988698244E-1,-1.170070171E0,2.176856041E0,2.479378074E0
2.317359588E0,1.950583160E-1,-1.082696438E0,2.338890553E0,2.584702757E0
2.322375370E0,2.313584387E-1,-9.844708443E-1,2.358434200E0,2.566110178E0
2.327391255E0,2.135369480E-1,-1.144036293E0,2.236359596E0,2.521055595E0
2.332407140E0,9.168994427E-2,-1.030072689E0,2.004158020E0,2.255239712E0
2.337423026E0,5.783986449E-1,-4.601635933E-1,1.553775787E0,1.720614635E0
2.342438807E0,1.924532354E-1,-1.114950180E-1,1.088864326E0,1.111348239E0
2.347454692E0,-8.299720287E-2,3.145771027E-1,2.311553955E-1,3.990991181E-1
2.352470578E0,3.623155951E-1,3.972849846E-1,-8.108654022E-1,9.729391810E-1
2.357486359E0,-3.901952505E-2,-1.123466492E-1,-1.107849121E0,1.114214507E0
2.362502297E0,4.497355223E-2,-3.635478020E-1,-3.276453018E-1,4.914682782E-1
2.367518078E0,2.552475333E-1,-9.062528610E-2,3.682012558E-1,4.570956251E-1
2.372534015E0,4.803689122E-1,1.555991173E-1,7.244629860E-1,8.830696435E-1
2.377549797E0,3.460483253E-1,3.399176598E-1,6.472058296E-1,8.088070504E-1
2.382565734E0,2.973521352E-1,3.970232010E-1,-9.500408173E-2,5.050460276E-1
2.387581515E0,2.521699071E-1,5.607178211E-1,-9.378604889E-1,1.121417154E0
2.392597453E0,2.600066364E-1,7.389931679E-1,-1.679904938E0,1.853589748E0
2.397613234E0,2.174917459E-1,7.546947002E-1,-1.969970703E0,2.120766682E0
2.402629172E0,1.422924697E-1,7.945992947E-1,-2.043293953E0,2.196971862E0
2.407644953E0,1.562536657E-1,8.495171070E-1,-1.948391914E0,2.131273229E0
2.412660890E0,2.681434453E-1,7.491638660E-1,-1.667453766E0,1.847579353E0
2.417676672E0,2.480975091E-1,5.599980354E-1,-1.273417473E0,1.413061299E0
2.422692557E0,6.005185843E-2,3.308849335E-1,-8.434295654E-1,9.080002735E-1
2.427708442E0,2.693046033E-1,3.081183434E-1,-6.047039032E-1,7.301566225E-1
2.432724224E0,4.566458464E-1,5.490994453E-1,-4.567489624E-1,8.477353623E-1
2.437740161E0,3.297982812E-1,5.020217896E-1,-3.996524811E-1,7.214671781E-1
2.442755942E0,1.243507862E-1,2.090330124E-1,-5.353326797E-1,5.879957451E-1
2.447771880E0,3.948312998E-2,5.254173279E-2,-7.414579391E-1,7.443651166E-1
2.452787661E0,2.197258472E-1,1.710350513E-1,-7.957715988E-1,8.430805858E-1
2.457803599E0,2.743461728E-1,4.468777180E-1,-6.866378784E-1,8.639659099E-1
2.462819380E0,2.312081158E-1,5.633449554E-1,-7.294387817E-1,9.502082235E-1
2.467835317E0,2.457996309E-1,5.121912956E-1,-1.023665428E0,1.170746894E0
2.472851099E0,2.819949687E-1,3.465013504E-1,-1.232112885E0,1.310605398E0
2.477866984E0,2.580679357E-1,3.034510612E-1,-1.223814964E0,1.287013859E0
2.482882870E0,1.621589959E-1,3.943562508E-1,-1.154465675E0,1.230692239E0
2.487898651E0,2.221703827E-1,4.899828434E-1,-1.191637039E0,1.307456194E0
2.492914588E0,2.608142495E-1,4.497709274E-1,-1.213554382E0,1.320239448E0
2.497930370E0,2.394714057E-1,2.628741264E-1,-1.098812103E0,1.154918785E0
2.502946307E0,2.205273211E-1,9.961271286E-2,-8.837728500E-1,9.163020476E-1
2.507962088E0,2.775430977E-1,1.323487759E-1,-6.978549957E-1,7.625929220E-1
2.512978026E0,2.717342675E-1,2.051877975E-1,-6.389636993E-1,7.240277298E-1
2.517993807E0,2.166562676E-1,2.625558376E-1,-7.498474121E-1,8.234965984E-1
2.523009745E0,1.997326016E-1,1.288495064E-1,-9.613065720E-1,9.902553371E-1
2.528025526E0,1.145861447E-1,3.607249260E-2,-9.051399231E-1,9.130769352E-1
2.533041463E0,5.349308252E-2,-1.575663090E-1,-7.205228806E-1,7.394875746E-1
2.538057245E0,3.151537776E-1,-1.463778019E-1,-6.806468964E-1,7.642176143E-1
2.543073182E0,3.974554539E-1,-6.677341461E-2,-2.577896118E-1,4.784192833E-1
2.548088963E0,-9.343284369E-2,-2.735471725E-1,6.006526947E-2,2.952381894E-1
2.553104901E0,5.050542951E-2,-5.312471390E-1,-1.499538422E-1,5.543108116E-1
2.558120682E0,4.377786815E-1,-1.841609478E-1,-2.436256409E-2,4.755617344E-1
2.563136620E0,1.204132140E-1,-4.470705986E-1,3.190679550E-1,5.622951379E-1
2.568152401E0,2.515185475E-1,-5.550980568E-1,4.903411865E-1,7.821955712E-1
2.573168286E0,3.408790231E-1,-4.012430906E-1,6.333074570E-1,8.235732276E-1
2.578184172E0,8.029758930E-3,-4.009040594E-1,5.739135742E-1,7.001180847E-1
2.583199953E0,2.288721204E-1,-3.008658886E-1,2.194938660E-1,4.371273128E-1
2.588215890E0,3.698721826E-1,-2.437261343E-1,1.105937958E-1,4.565510351E-1
2.593231672E0,8.759605885E-2,-3.482244015E-1,2.634048462E-1,4.453261909E-1
2.598247609E0,8.605593443E-2,-4.830096960E-1,3.215084076E-1,5.865762068E-1
2.603263390E0,3.287366033E-1,-4.913042784E-1,4.522180557E-1,7.442773799E-1
2.608279328E0,3.357814550E-1,-4.155141115E-1,7.653684616E-1,9.333756181E-1
2.613295109E0,1.511444747E-1,-3.730119467E-1,9.954843521E-1,1.073765179E0
2.618311047E0,1.605968773E-1,-3.218566179E-1,8.562078476E-1,9.286952771E-1
2.623326828E0,2.684053779E-1,-2.963707447E-1,5.754241943E-1,7.007068350E-1
2.628342765E0,2.349034846E-1,-2.536684275E-1,4.044065475E-1,5.320450863E-1
2.633358547E0,1.513389647E-1,-2.275613546E-1,3.191280365E-1,4.201551571E-1
2.638374484E0,1.568042636E-1,-1.205006838E-1,2.502002716E-1,3.189171801E-1
2.643390265E0,1.816255152E-1,-2.595412731E-2,2.143745422E-1,2.821664205E-1
2.648406203E0,1.862554550E-1,-8.600473404E-3,2.499351501E-1,3.118214905E-1
2.653421984E0,1.880910397E-1,7.077699900E-2,2.039985657E-1,2.863617251E-1
2.658437870E0,2.339236587E-1,1.444591880E-1,-1.670198441E-1,3.216898559E-1
2.663453755E0,2.180913985E-1,1.464744210E-1,-4.491853714E-1,5.203711291E-1
2.668469536E0,7.307040691E-2,4.451650381E-2,-3.440189362E-1,3.544996924E-1
2.673485474E0,4.365724325E-2,-7.148301601E-2,-9.133625031E-2,1.239277495E-1
2.678501255E0,2.802065015E-1,-5.356359482E-2,2.557630539E-1,3.831442051E-1
2.683517192E0,8.187949657E-3,-4.512345195E-1,8.690538406E-1,9.792518634E-1
2.688532974E0,2.187937796E-1,-8.279495835E-1,1.843430519E0,2.032635558E0
2.693548911E0,1.072593927E-1,-9.737935662E-1,2.523596764E0,2.707086831E0
2.698564692E0,3.968499303E-1,-7.762602568E-1,2.695000648E0,2.832507431E0
2.703580630E0,4.131805599E-1,-6.409657001E-1,2.446983337E0,2.563061189E0
2.708596411E0,2.374094278E-1,-6.996086836E-1,2.208044052E0,2.328362962E0
2.713612349E0,-1.028705537E-1,-8.626143336E-1,1.942278385E0,2.127705610E0
2.718628130E0,7.988896966E-2,-7.798955441E-1,1.587513924E0,1.770542223E0
2.723644067E0,2.081072032E-1,-6.999331713E-1,1.576281548E0,1.737204239E0
2.728659849E0,2.142879069E-1,-5.223168135E-1,1.688058853E0,1.779965408E0
2.733675786E0,2.575094700E-1,-5.275075436E-1,1.812384605E0,1.905075666E0
2.738691567E0,1.744163632E-1,-5.111485720E-1,1.440228462E0,1.538165126E0
2.743707505E0,1.653860509E-1,-4.798226357E-1,1.062448502E0,1.177446018E0
2.748723286E0,1.795796752E-1,-3.709545135E-1,8.082342148E-1,9.072478475E-1
2.753739224E0,2.383722216E-1,-4.660069942E-2,4.339485168E-1,4.972969500E-1
2.758755005E0,2.230209410E-1,3.768223524E-1,-1.886854172E-1,4.767972442E-1
2.763770942E0,2.565501034E-1,6.983557940E-1,-1.044412613E0,1.282309041E0
2.768786724E0,1.669728160E-1,7.601655722E-1,-1.671385765E0,1.843708761E0
2.773802661E0,3.164947033E-3,7.114413977E-1,-1.859600067E0,1.991047787E0
2.778818442E0,8.373737335E-2,5.842022896E-1,-1.581228256E0,1.687775773E0
2.783834380E0,1.562351286E-1,5.890157223E-1,-1.161991119E0,1.312087001E0
2.788850161E0,4.524863958E-1,8.193814754E-1,-9.511842728E-1,1.334496707E0
2.793866047E0,4.467715919E-1,8.326715231E-1,-9.780817032E-1,1.359996522E0
2.798881932E0,-6.793385744E-2,2.724752426E-1,-3.420104980E-1,4.425256463E-1
2.803897713E0,-1.962130070E-1,-4.044375420E-1,5.113458633E-1,6.808405551E-1
2.808913651E0,2.884663343E-1,-4.806320667E-1,8.266839981E-1,9.988125161E-1
2.813929536E0,3.293217421E-1,1.681585312E0,1.160225868E0,2.069373344E0
2.818945317E0,1.383118033E0,3.959496260E0,2.958593369E-1,4.204540269E0
2.823961203E0,1.525950551E0,1.792340994E0,-3.635237694E0,4.330815675E0
2.828977088E0,-1.954793215E0,1.717464924E-1,-7.007074356E0,7.276661625E0
2.833992870E0,-1.006397367E0,4.382863045E-1,-7.670559883E0,7.748704373E0
2.839008807E0,1.256953001E0,9.586013556E-1,-4.618586540E0,4.881617461E0
2.844024588E0,-1.224734485E-1,9.626297951E-1,-1.963424683E-2,9.705881576E-1
2.849040526E0,-7.586538792E-3,1.040177822E0,2.183331490E0,2.418463117E0
2.854056307E0,1.314653397E0,7.335796356E-1,1.562254906E0,2.169583606E0
2.859072245E0,8.215397000E-1,-4.430174828E-2,8.690261841E-2,8.273102131E-1
2.864088026E0,-7.359318137E-1,-3.426222801E-1,-1.046106339E0,1.324131464E0
2.869103963E0,-3.188146949E-1,5.785608292E-2,-1.472359657E0,1.507591820E0
2.874119745E0,2.430688739E-1,3.441293240E-1,-5.962696075E-1,7.300992494E-1
2.879135682E0,5.940175056E-2,1.317083836E-1,8.456287384E-1,8.578832260E-1
2.884151463E0,2.738075256E-1,-1.623404026E-1,1.681209087E0,1.711078304E0
2.889167401E0,5.289999843E-1,-2.356126308E-1,1.689594746E0,1.786080821E0
2.894183182E0,2.378863543E-1,5.956411362E-3,1.109660149E0,1.134888119E0
2.899199120E0,-8.591413498E-4,3.260912895E-1,4.365921021E-2,3.290021183E-1
2.904214901E0,1.574436128E-1,4.869357347E-1,-1.034090996E0,1.153793347E0
2.909230838E0,1.635791063E-1,3.378293514E-1,-1.390311241E0,1.440087547E0
2.914246620E0,-5.201274157E-2,9.210968018E-2,-8.786849976E-1,8.850292896E-1
2.919262557E0,4.272368550E-2,-1.865744591E-2,3.280162811E-2,5.700316129E-2
2.924278338E0,3.773537278E-1,-2.228212357E-2,8.030605316E-1,8.875801633E-1
2.929294276E0,4.063821733E-1,5.937337875E-3,1.105168343E0,1.177530801E0
2.934310057E0,2.456651032E-1,1.682825089E-1,7.733278275E-1,8.286774248E-1
2.939325995E0,2.482149750E-1,3.874621391E-1,-1.117801666E-1,4.735318244E-1
2.944341776E0,1.802441180E-1,5.277314186E-1,-1.018166542E0,1.160883930E0
2.949357713E0,3.665533662E-2,5.314283371E-1,-1.548901558E0,1.637942529E0
2.954373495E0,-8.056983352E-2,3.705623150E-1,-1.468080521E0,1.516267899E0
2.959389432E0,-3.731131554E-2,3.826832771E-1,-1.177473068E0,1.238661153E0
2.964405213E0,8.415234685E-1,7.753763199E-1,-1.033973694E0,1.542229485E0
2.969421151E0,3.552436829E-1,1.027693033E0,-1.692161560E0,2.011407912E0
2.974436932E0,-1.717843413E-1,6.630100012E-1,-1.965813637E0,2.081709724E0
2.979452870E0,-3.441605270E-1,6.098985672E-1,-1.361359596E0,1.530922167E0
2.984468651E0,3.662890196E-1,6.568833590E-1,-3.753976822E-1,8.405871834E-1
2.989484588E0,5.973893404E-1,3.626306057E-1,2.885341644E-1,7.560601459E-1
2.994500370E0,1.640740931E-1,2.482814789E-1,1.296463013E-1,3.246107888E-1
2.999516307E0,3.136545420E-2,3.343832493E-1,-5.852727890E-1,6.747889942E-1
3.004532088E0,2.756075263E-1,4.068200588E-1,-1.081979752E0,1.188335917E0
3.009548026E0,-2.794134617E-1,-1.287236214E-1,-7.159500122E-1,7.792471195E-1
3.014563807E0,-2.992099524E-1,-8.217129707E-1,7.221841812E-1,1.134146725E0
3.019579692E0,8.379700184E-1,-6.252884865E-2,1.053700447E0,1.347734485E0
3.024595578E0,8.034706116E-1,8.311508894E-1,6.874265671E-1,1.344965468E0
3.029611463E0,3.992468119E-2,1.193654060E0,-6.089963913E-1,1.340626943E0
3.034627245E0,-6.698337197E-2,1.024716139E0,-2.257420540E0,2.480015611E0
3.039643182E0,-2.471252382E-1,5.550751686E-1,-3.000296593E0,3.061202210E0
3.044658963E0,1.218827665E-1,2.359818220E-1,-2.482014656E0,2.496185006E0
3.049674849E0,1.344513297E-1,1.828583479E-1,-9.853801727E-1,1.011181695E0
3.054690734E0,3.046900034E-2,-3.380477428E-2,7.582006454E-1,7.595652319E-1
3.059706515E0,3.069777489E-1,-1.563786268E-1,1.632026196E0,1.667992541E0
3.064722453E0,4.016580284E-1,-2.675862312E-1,1.989233017E0,2.046943956E0
3.069738234E0,3.458306789E-1,-3.469717503E-1,1.510540962E0,1.587993153E0
3.074754172E0,3.214401007E-2,-4.456826448E-1,6.855888367E-1,8.183509701E-1
3.079769953E0,5.164626241E-2,-1.217508316E-1,1.195983887E-1,1.783097754E-1
3.084785890E0,-7.847461104E-2,-1.262879372E-2,-3.910837173E-1,3.990792214E-1
3.089801672E0,-2.170360386E-1,-4.392521381E-1,4.179630280E-1,6.440032420E-1
3.094817609E0,4.318292141E-1,5.072557926E-2,4.675207138E-1,6.384553018E-1
3.099833390E0,2.541090250E-1,2.223086357E-1,7.129640579E-1,7.888664488E-1
3.104849328E0,6.269550323E-2,4.551137686E-1,1.621551514E-1,4.871894514E-1
3.109865109E0,2.774059176E-1,5.626367331E-1,-6.626338959E-1,9.124679811E-1
3.114881047E0,-2.819681764E-1,7.610380650E-2,-7.378025055E-1,7.935051222E-1
3.119896828E0,2.725114226E-1,-1.076967716E-1,-5.506916046E-1,6.237966924E-1
3.124912765E0,-4.422247410E-3,-5.179492235E-1,3.065919876E-1,6.019049770E-1
3.129928547E0,-3.653347492E-2,-5.775804520E-1,1.584632397E0,1.687007322E0
3.134944484E0,6.297355890E-1,-1.401705742E-1,1.870338917E0,1.978479812E0
3.139960265E0,5.552961230E-1,5.255624056E-1,1.235461235E0,1.452905396E0
3.144976203E0,5.601537228E-2,7.568150759E-1,-1.814355850E-1,7.802728065E-1
3.149991984E0,-4.986718297E-2,7.408041358E-1,-1.812310219E0,1.958506021E0
3.155007922E0,-3.218165040E-2,5.808078051E-1,-2.664839745E0,2.727589454E0
3.160023703E0,-9.039023519E-2,4.522000551E-1,-2.207764626E0,2.255411254E0
3.165039640E0,1.953557581E-1,6.070762873E-1,-1.170412064E0,1.332880298E0
3.170055422E0,1.537707746E-1,4.313939810E-1,-6.289482117E-2,4.622791110E-1
3.175071359E0,3.739050329E-1,4.669436216E-1,3.165178299E-1,6.767753365E-1
3.180087140E0,6.033204794E-1,7.961574197E-1,-1.724767685E-1,1.013711238E0
3.185103078E0,-3.149076700E-1,1.857321262E-1,-6.559238434E-1,7.509323216E-1
3.190118859E0,-3.122330010E-1,-2.428026199E-1,-5.454444885E-1,6.737597860E-1
3.195134797E0,5.842083097E-1,-3.347766399E-2,-5.569524765E-1,8.078466217E-1
3.200150578E0,3.719278574E-1,4.921082258E-1,-2.217016220E-1,6.554787916E-1
3.205166515E0,-1.470328867E-1,6.714323759E-1,-2.286577225E-1,7.243786712E-1
3.210182297E0,7.928881049E-2,5.442704558E-1,-6.154356003E-1,8.253956764E-1
3.215198234E0,1.838830858E-1,3.474563360E-1,-8.794288635E-1,9.632933202E-1
3.220214015E0,6.852138042E-2,1.536197662E-1,-8.345108032E-1,8.512945982E-1
3.225229953E0,1.439646184E-1,1.095480919E-1,-5.768995285E-1,6.045987610E-1
3.230245734E0,1.685917079E-1,2.296620607E-1,-3.221168518E-1,4.300315016E-1
3.235261672E0,1.196779907E-1,4.088889360E-1,-2.662715912E-1,5.024077465E-1
3.240277453E0,1.079443991E-1,2.049930692E-1,-4.173393250E-1,4.773324458E-1
3.245293390E0,-4.151936769E-1,-1.093036413E0,3.765573502E-1,1.228376908E0
3.250309172E0,-2.977221906E-1,-1.857746720E0,2.498442650E0,3.127631221E0
3.255325109E0,3.306401074E-1,-2.074309111E0,4.642920017E0,5.095957952E0
3.260340890E0,5.786018372E-1,-1.679322124E0,5.547725677E0,5.825132022E0
3.265356828E0,6.499255300E-1,-1.199691415E0,5.362945080E0,5.533790980E0
3.270372609E0,3.277480602E-3,-9.370331764E-1,4.176430702E0,4.280258792E0
3.275388547E0,-2.992197573E-1,-1.214668989E0,2.706578255E0,2.981697346E0
3.280404432E0,4.140732288E-1,-1.844376683E0,1.728668213E0,2.561537776E0
3.285420213E0,-2.813401222E-1,-1.699650168E0,1.644258499E0,2.381501411E0
3.290436099E0,1.622375846E-1,-3.364354372E-1,9.395027161E-1,1.011026800E0
3.295451984E0,9.144859314E-1,9.309252501E-1,-5.904197693E-2,1.306289514E0
3.300467765E0,-3.836837411E-1,1.545521259E0,-1.190045357E0,1.987978151E0
3.305483703E0,-3.439697325E-1,7.444489002E-1,-2.259408951E0,2.403632282E0
3.310499484E0,1.059810817E-1,-2.251961231E-1,-2.497630119E0,2.510000298E0
3.315515422E0,2.346859425E-1,-4.591696262E-1,-1.414605141E0,1.505663289E0
3.320531203E0,7.606744766E-2,-6.932234764E-2,1.458930969E-1,1.785403042E-1
3.325547140E0,4.421906471E-1,8.642184734E-1,9.783039093E-1,1.378217935E0
3.330562922E0,2.542912960E-1,1.362124801E0,5.443181992E-1,1.488734475E0
3.335578859E0,2.235004008E-1,7.281832695E-1,-8.424091339E-1,1.135718474E0
3.340594640E0,-7.953628898E-2,-2.782766819E-1,-1.910955429E0,1.932747936E0
3.345610578E0,-6.776863337E-2,-4.347822666E-1,-2.000287056E0,2.048115356E0
3.350626359E0,8.906903863E-2,8.090019226E-3,-9.265651703E-1,9.308715039E-1
3.355642297E0,8.832660317E-2,5.515875816E-1,2.991018295E-1,6.336500244E-1
3.360658078E0,2.182271034E-1,6.020774841E-1,7.920608521E-1,1.018567994E0
3.365674015E0,2.979845405E-1,2.782092094E-1,5.442638397E-1,6.800134394E-1
3.370689797E0,2.177543938E-1,-2.816607952E-1,-5.457878113E-3,3.560611858E-1
3.375705734E0,1.254600883E-1,-3.991241455E-1,-3.662776947E-1,5.560572515E-1
3.380721620E0,1.090798080E-1,-6.854033470E-2,-4.950742722E-1,5.115610589E-1
3.385737401E0,7.423046231E-2,5.031867027E-1,-6.094913483E-1,7.938430090E-1
3.390753286E0,2.083653212E-2,8.870847225E-1,-8.621835709E-1,1.237220262E0
3.395769172E0,5.146533251E-2,6.696357727E-1,-1.154733658E0,1.335840772E0
3.400784953E0,7.347321510E-2,9.047055244E-2,-1.164173126E0,1.169992437E0
3.405800890E0,4.912915826E-2,2.198088169E-1,-8.686580658E-1,8.973830985E-1
3.410816672E0,4.873855412E-1,8.861229420E-1,-6.266136169E-1,1.189707174E0
3.415832609E0,4.091013968E-1,1.264650583E0,-1.138909340E0,1.750376969E0
3.420848495E0,-5.962491035E-2,1.520524502E0,-2.507266998E0,2.932906015E0
3.425864276E0,7.249537110E-2,1.671587944E0,-3.986087799E0,4.323003328E0
3.430880213E0,1.702430844E-2,1.449772596E0,-4.533593178E0,4.759789650E0
3.435895995E0,-1.640866101E-1,9.793095589E-1,-3.890028954E0,4.014759879E0
3.440911880E0,3.060525656E-2,7.127175331E-1,-2.492162704E0,2.592253442E0
3.445927765E0,2.734538317E-1,6.447930336E-1,-8.810310364E-1,1.125500218E0
3.450943651E0,2.392661124E-1,5.764379501E-1,3.253574371E-1,7.038369448E-1
3.455959432E0,1.899935901E-1,3.903539181E-1,7.499055862E-1,8.665057033E-1
3.460975317E0,2.363886982E-1,1.909122467E-1,4.515409470E-1,5.442575947E-1
3.465991203E0,1.685638726E-1,6.582975388E-2,-1.135444641E-2,1.813181157E-1
3.471007088E0,-6.021708250E-3,4.306888580E-2,-3.083610535E-1,3.114124744E-1
3.476022870E0,8.278709650E-2,1.203663349E-1,-3.680963516E-1,3.960261128E-1
3.481038807E0,1.451044381E-1,2.953548431E-1,-2.411746979E-1,4.079889903E-1
3.486054588E0,7.570424676E-2,3.691082001E-1,-1.715364456E-1,4.140009040E-1
3.491070526E0,1.195833683E-1,3.520772457E-1,-2.551193237E-1,4.509372886E-1
3.496086307E0,-1.010090113E-3,4.281983376E-1,-2.716245651E-1,5.070845501E-1
3.501102245E0,1.262274981E-1,1.622662544E-1,-1.565313339E-1,2.583907450E-1
3.506118026E0,2.160885483E-1,-5.177640915E-2,-8.406257629E-2,2.375743546E-1
3.511133963E0,8.077955246E-2,2.145621777E-1,-2.303123474E-1,3.249708318E-1
3.516149745E0,1.392005086E-1,6.153168678E-1,-6.996965408E-1,9.421076789E-1
3.521165682E0,1.547081769E-1,7.167077065E-1,-1.249928474E0,1.449112055E0
3.526181463E0,-3.908696771E-2,5.979559422E-1,-1.551007271E0,1.662739503E0
3.531197401E0,-3.209710121E-2,4.648609161E-1,-1.552996635E0,1.621395832E0
3.536213182E0,3.751933575E-2,1.025671721E0,-1.045093536E0,1.464797146E0
3.541229120E0,5.124188066E-1,7.852334976E-1,-1.233071327E0,1.549073780E0
3.546244901E0,8.973166347E-2,4.323348999E-1,-1.778723717E0,1.832709278E0
3.551260838E0,-2.041898668E-1,5.945148468E-1,-2.041380882E0,2.135972217E0
3.556276620E0,1.359295249E-1,5.899031162E-1,-1.745287895E0,1.847293252E0
3.561292557E0,1.376863420E-1,4.420111179E-1,-1.021104813E0,1.121154046E0
3.566308338E0,5.046162009E-2,2.664482594E-1,-3.813695908E-1,4.679570651E-1
3.571324276E0,2.282478362E-1,2.783222198E-1,-1.606540680E-1,3.941700932E-1
3.576340057E0,2.787230015E-1,2.002913952E-1,-2.198457718E-1,4.075970043E-1
3.581355995E0,8.296862245E-2,1.272599697E-1,-4.028778076E-1,4.305687170E-1
3.586371776E0,4.848882556E-2,1.738035679E-1,-6.928606033E-1,7.159711321E-1
3.591387713E0,1.030558944E-1,1.491904259E-1,-8.030567169E-1,8.232729749E-1
3.596403495E0,5.744242668E-2,4.042983055E-2,-6.194419861E-1,6.234120449E-1
3.601419432E0,6.190499663E-2,-9.126424789E-2,-2.265501022E-1,2.519649586E-1
3.606435213E0,1.310468316E-1,-1.325500011E-1,1.335449219E-1,2.292967968E-1
3.611451151E0,1.263785660E-1,-2.400953770E-1,3.816184998E-1,4.682414029E-1
3.616466932E0,1.338539422E-1,-3.168933392E-1,6.035528183E-1,6.947044485E-1
3.621482870E0,1.193844080E-1,-4.356818199E-1,8.373012543E-1,9.513909162E-1
3.626498651E0,6.640377641E-2,-5.505845547E-1,1.090000153E0,1.222968988E0
3.631514588E0,7.114928961E-2,-5.776886940E-1,1.220567703E0,1.352247007E0
3.636530370E0,1.352289319E-1,-5.327074528E-1,1.303056717E0,1.414220952E0
3.641546307E0,7.859596610E-2,-5.544970036E-1,1.411790848E0,1.518814554E0
3.646562192E0,-9.722316265E-2,-4.487535954E-1,1.387109756E0,1.461131619E0
3.651577974E0,1.476389468E-1,-2.598874569E-1,1.090958595E0,1.131162855E0
3.656593911E0,2.226727009E-1,-2.162461281E-1,7.272548676E-1,7.907244539E-1
3.661609692E0,-4.382708669E-2,-3.064262867E-1,3.943405151E-1,5.013205807E-1
3.666625630E0,-5.469143391E-3,-3.601326942E-1,1.518249512E-1,3.908660701E-1
3.671641411E0,4.504048824E-2,-2.976508141E-1,2.456130981E-1,3.885234184E-1
3.676657349E0,1.420724392E-2,-2.352075577E-1,5.912542343E-1,6.364793874E-1
3.681673130E0,7.377004623E-2,-2.107589245E-1,9.205636978E-1,9.472586055E-1
3.686689067E0,1.330103278E-1,-2.028834820E-1,1.032754898E0,1.060865747E0
3.691704849E0,1.037552655E-1,-2.049143314E-1,9.617176056E-1,9.887647805E-1
3.696720786E0,9.144949913E-2,-2.247211933E-1,7.461414337E-1,7.845952235E-1
3.701736567E0,1.155080199E-1,-2.742433548E-1,5.415859222E-1,6.179537454E-1
3.706752505E0,8.750003576E-2,-3.270719051E-1,4.555692673E-1,5.676051838E-1
3.711768286E0,5.731010437E-2,-2.417800426E-1,5.905981064E-1,6.407403221E-1
3.716784224E0,1.277683973E-1,-2.010440826E-1,7.497587204E-1,7.866902982E-1
3.721800005E0,1.267206073E-1,-4.095938206E-1,9.111461639E-1,1.006981898E0
3.726815942E0,1.278418303E-2,-5.127573013E-1,1.186894417E0,1.292981764E0
3.731831724E0,1.155163348E-1,-3.839967251E-1,1.423736572E0,1.479129249E0
3.736847661E0,9.771740437E-2,-2.782564163E-1,1.385280609E0,1.416325418E0
3.741863442E0,2.026104927E-2,-3.001458645E-1,9.839029312E-1,1.028864922E0
3.746879380E0,2.929270267E-2,-2.238066196E-1,4.763269424E-1,5.271003904E-1
3.751895161E0,6.460684538E-2,-9.376502037E-2,1.261425018E-1,1.699348531E-1
3.756911099E0,1.135104895E-2,9.356307983E-2,-7.841587067E-2,1.226048327E-1
3.761926880E0,5.633431673E-2,2.723917961E-1,-2.996854782E-1,4.088792385E-1
3.766942817E0,7.783490419E-2,3.034055233E-1,-5.349817276E-1,6.199343778E-1
3.771958599E0,7.068350911E-2,3.463113308E-1,-6.859169006E-1,7.716279485E-1
3.776974536E0,5.597960949E-2,4.002244473E-1,-7.712888718E-1,8.707467190E-1
3.781990317E0,1.765676290E-1,5.261931419E-1,-9.029750824E-1,1.059914784E0
3.787006255E0,1.241131723E-1,9.856243134E-1,-1.096917152E0,1.479894120E0
3.792022036E0,1.148176193E-1,1.283046961E0,-1.593329430E0,2.048924416E0
3.797037974E0,5.398637056E-2,1.342949629E0,-2.194938660E0,2.573749007E0
3.802053859E0,1.048023105E-1,1.218166113E0,-2.633674622E0,2.903644988E0
3.807069640E0,-1.808145642E-2,1.136989355E0,-2.625514030E0,2.861187805E0
3.812085578E0,1.208418906E-1,9.431650639E-1,-2.150204659E0,2.351072771E0
3.817101359E0,1.217776537E-1,1.173958302E0,-1.493548393E0,1.903600455E0
3.822117297E0,4.173791409E-1,7.565715313E-1,-1.084210396E0,1.386404707E0
3.827133078E0,3.964431286E-1,2.967069149E-1,-7.808399200E-1,9.246151244E-1
3.832149015E0,1.467340589E-1,5.776808262E-1,-8.470115662E-1,1.035700060E0
3.837164797E0,7.036569715E-2,8.895425797E-1,-1.065188408E0,1.389555208E0
3.842180734E0,-1.217548847E-1,6.623678207E-1,-9.862813950E-1,1.194280692E0
3.847196515E0,-1.384833157E-1,3.264617920E-1,-5.959577560E-1,6.934843743E-1
3.852212453E0,8.561345935E-2,2.708351612E-1,-4.107589722E-1,4.994039269E-1
3.857228234E0,1.268589795E-1,7.693219185E-2,-5.213832855E-1,5.420814452E-1
3.862244172E0,1.922115684E-2,3.198361397E-2,-7.051696777E-1,7.061562708E-1
3.867259953E0,-5.517861247E-2,3.057658672E-1,-7.015237808E-1,7.672503241E-1
3.872275890E0,2.624511719E-3,6.099443436E-1,-7.039957047E-1,9.314767536E-1
3.877291672E0,1.108006835E-1,5.714600086E-1,-7.651796341E-1,9.614276912E-1
3.882307609E0,1.550340652E-1,2.801215649E-1,-7.563152313E-1,8.212894627E-1
3.887323390E0,4.754206538E-2,-8.529686928E-2,-5.801401138E-1,5.883012456E-1
3.892339328E0,6.662645936E-2,-2.050304413E-1,-1.442279816E-1,2.593805652E-1
3.897355109E0,1.495157480E-1,-2.179384232E-3,3.978147507E-1,4.249897463E-1
3.902371047E0,1.453833282E-1,2.403783798E-1,6.108465195E-1,6.723477879E-1
3.907386932E0,1.342924833E-1,2.655684948E-1,2.901029587E-1,4.155969479E-1
3.912402713E0,6.462153792E-2,1.282339096E-1,-1.571245193E-1,2.128567436E-1
3.917418651E0,3.300011158E-4,-3.245568275E-2,-3.720998764E-1,3.735127819E-1
3.922434432E0,4.903578758E-2,-2.032053471E-1,-1.834783554E-1,2.781388654E-1
3.927450370E0,1.479265690E-1,-1.816451550E-1,2.809505463E-1,3.658010956E-1
3.932466151E0,1.547978818E-1,-4.146885872E-2,7.528543472E-1,7.697218450E-1
3.937482088E0,1.467280686E-1,1.605081558E-2,9.214935303E-1,9.332400983E-1
3.942497870E0,1.290343404E-1,4.541158676E-3,7.564840317E-1,7.674233338E-1
3.947513807E0,9.727758169E-2,-9.576487541E-2,3.972024918E-1,4.200043556E-1
3.952529588E0,2.316266298E-2,-1.272296906E-1,1.667852402E-1,2.110479080E-1
3.957545526E0,1.887357235E-2,-1.231486797E-1,1.319293976E-1,1.814584663E-1
3.962561307E0,6.491741538E-2,-6.859111786E-2,2.610769272E-1,2.776331648E-1
3.967577245E0,6.060737371E-2,-1.569390297E-2,4.964399338E-1,5.003720218E-1
3.972593026E0,4.155719280E-2,1.608371735E-2,5.941390991E-1,5.958078175E-1
3.977608963E0,4.166790843E-2,4.933118820E-3,4.994459152E-1,5.012053197E-1
3.982624745E0,1.103338599E-2,-6.615519524E-2,3.322620392E-1,3.389635794E-1
3.987640682E0,-1.203128695E-2,-1.205744743E-1,1.954793930E-1,2.299894537E-1
3.992656463E0,-6.446748972E-3,-1.009042263E-1,1.966428757E-1,2.211145495E-1
3.997672401E0,1.823136210E-2,-6.924200058E-2,2.900705338E-1,2.987770938E-1
4.002688182E0,2.584704757E-2,-1.354527473E-2,3.560485840E-1,3.572424086E-1
4.007704120E0,8.811214566E-2,1.556181908E-2,3.732233047E-1,3.837988479E-1
4.012720005E0,6.663790345E-2,2.463483810E-2,2.821063995E-1,2.909149465E-1
4.017735786E0,7.153621316E-2,5.615615845E-2,1.284818649E-1,1.574119866E-1
4.022751724E0,9.773865342E-2,1.261985302E-1,-2.753067017E-2,1.619779343E-1
4.027767505E0,8.354410529E-2,1.698830128E-1,-1.523685455E-1,2.430144630E-1
4.032783442E0,1.174210310E-1,2.323875427E-1,-2.268209457E-1,3.453105993E-1
4.037799224E0,8.915215731E-2,2.588088512E-1,-2.342538834E-1,3.602846243E-1
4.042815161E0,8.480602503E-2,2.609062195E-1,-2.200727463E-1,3.517046074E-1
4.047830942E0,8.279642463E-2,2.910084724E-1,-2.152566910E-1,3.713174140E-1
4.052846880E0,9.501427412E-2,3.202848434E-1,-2.771253586E-1,4.340605460E-1
4.057862661E0,7.541754842E-2,3.363335133E-1,-3.787851334E-1,5.121388640E-1
4.062878599E0,4.659560323E-2,3.603229523E-1,-4.624195099E-1,5.880778718E-1
4.067894380E0,2.776974440E-2,3.731884956E-1,-5.329265594E-1,6.511923907E-1
4.072910317E0,3.017374873E-2,3.581213951E-1,-5.712585449E-1,6.749057074E-1
4.077926099E0,3.261527419E-2,3.535864353E-1,-5.350666046E-1,6.421708454E-1
4.082942036E0,5.387538671E-2,3.573606014E-1,-4.559221268E-1,5.817853061E-1
4.087957922E0,3.692120314E-2,3.479599953E-1,-4.315013885E-1,5.555472814E-1
4.092973703E0,5.332264304E-2,3.349368572E-1,-4.375810623E-1,5.536273012E-1
4.097989588E0,6.449905038E-2,3.111433983E-1,-4.334983826E-1,5.374859900E-1
4.103005474E0,4.495215416E-2,3.005673885E-1,-4.194355011E-1,5.179648548E-1
4.108021359E0,4.457974434E-2,2.959606647E-1,-4.191942215E-1,5.150765613E-1
4.113037140E0,7.520097494E-2,2.831373215E-1,-4.160919189E-1,5.088756375E-1
4.118053078E0,8.167189360E-2,2.341563702E-1,-3.794832230E-1,4.533288215E-1
4.123068859E0,4.524594545E-2,2.276685238E-1,-2.645444870E-1,3.519430890E-1
4.128084797E0,7.802796364E-2,2.420070171E-1,-1.930389404E-1,3.192487932E-1
4.133100578E0,1.009741127E-1,2.057471275E-1,-2.120714188E-1,3.122530041E-1
4.138116515E0,8.340761065E-2,1.883482933E-1,-2.236318588E-1,3.040445977E-1
4.143132297E0,5.898836255E-2,1.777856350E-1,-2.254161835E-1,2.930867017E-1
4.148148234E0,7.518419623E-2,1.811473370E-1,-2.151346207E-1,2.911184056E-1
4.153164015E0,7.694026828E-2,1.844329834E-1,-1.550607681E-1,2.529410446E-1
4.158179953E0,5.257812142E-2,1.569080353E-1,-1.050195694E-1,1.959941334E-1
4.163195734E0,5.210316181E-2,1.651670933E-1,-8.148288727E-2,1.914010687E-1
4.168211672E0,6.114068627E-2,1.638329029E-1,-7.237529755E-2,1.892553494E-1
4.173227557E0,3.916981816E-2,1.647200584E-1,-1.036291122E-1,1.985093580E-1
4.178243338E0,4.823395610E-2,1.556172371E-1,-1.581478119E-1,2.270549920E-1
4.183259276E0,2.621433139E-2,1.889767647E-1,-2.001819611E-1,2.765361211E-1
4.188275057E0,2.578774095E-2,1.978580952E-1,-2.013025284E-1,2.834352507E-1
4.193290995E0,3.976893425E-2,1.873719692E-1,-1.737995148E-1,2.586427929E-1
4.198306776E0,2.279052138E-2,1.718137264E-1,-2.104454041E-1,2.726291117E-1
4.203322713E0,3.196084499E-2,1.347467899E-1,-1.825599670E-1,2.291426075E-1
4.208338495E0,2.924132347E-2,1.194128990E-1,-1.454381943E-1,1.904383465E-1
4.213354432E0,2.640891075E-2,9.471011162E-2,-8.725070953E-2,1.314538783E-1
4.218370213E0,5.208989978E-2,1.014025211E-1,-4.631233215E-2,1.230473936E-1
4.223386151E0,6.102550030E-2,1.060221195E-1,-5.875587463E-3,1.224717275E-1
4.228401932E0,5.806690454E-2,1.131377220E-1,-1.808166504E-2,1.284478733E-1
4.233417870E0,4.799541831E-2,1.085112095E-1,-3.026676178E-2,1.224512949E-1
4.238433651E0,4.771804810E-2,8.994746208E-2,-3.535747528E-2,1.077854773E-1
4.243449588E0,2.120384574E-2,6.714081764E-2,-1.443958282E-2,7.187484970E-2
4.248465474E0,3.305071592E-2,6.158041954E-2,1.354217529E-3,6.990230181E-2
4.253481255E0,6.103861332E-2,9.667015076E-2,7.431030273E-3,1.145689774E-1
4.258497192E0,4.366937280E-2,1.173565388E-1,1.814365387E-2,1.265257424E-1
4.263512974E0,4.333791137E-2,1.118383408E-1,-3.775787354E-2,1.257443678E-1
4.268528911E0,2.854454517E-2,1.272706985E-1,-1.095972061E-1,1.703648126E-1
4.273544692E0,2.801102400E-2,1.682834625E-1,-1.687831879E-1,2.399827197E-1
4.278560630E0,2.265542746E-2,1.751234531E-1,-2.200870514E-1,2.821698113E-1
4.283576411E0,3.180295229E-2,1.788794994E-1,-2.493152618E-1,3.084921440E-1
4.288592349E0,1.469546556E-2,1.795296669E-1,-2.400026321E-1,3.000801917E-1
4.293608130E0,3.318327665E-2,1.795260906E-1,-2.257232666E-1,2.903131760E-1
4.298624067E0,3.706717491E-2,1.811366081E-1,-2.135944366E-1,2.825013799E-1
4.303639849E0,4.831215739E-2,1.868028641E-1,-2.131500244E-1,2.875105346E-1
4.308655786E0,3.594771028E-2,1.962709427E-1,-2.336921692E-1,3.072890346E-1
4.313671567E0,1.404529810E-2,2.070596218E-1,-2.631263733E-1,3.351215387E-1
4.318687505E0,3.729844093E-2,2.119219303E-1,-2.942113876E-1,3.645029751E-1
4.323703286E0,2.468255162E-2,2.131199837E-1,-3.126220703E-1,3.791594844E-1
4.328719224E0,3.586730361E-2,2.152609825E-1,-3.373861313E-1,4.018123388E-1
4.333735109E0,2.322539687E-2,2.207627296E-1,-3.471174240E-1,4.120268291E-1
4.338750890E0,8.419632912E-3,1.869695187E-1,-3.609876633E-1,4.066209342E-1
4.343766828E0,4.586657882E-2,1.832273006E-1,-3.434209824E-1,3.919361656E-1
4.348782609E0,2.849316597E-2,1.523549557E-1,-3.089609146E-1,3.456598614E-1
4.353798547E0,3.270962834E-2,1.541991234E-1,-2.578630447E-1,3.022261393E-1
4.358814328E0,3.420841694E-2,1.506154537E-1,-1.855573654E-1,2.414265241E-1
4.363830265E0,4.312512279E-2,1.489269733E-1,-1.350488663E-1,2.056142405E-1
4.368846047E0,4.701885581E-2,1.348726749E-1,-1.251306534E-1,1.898923160E-1
4.373861984E0,2.000409365E-2,1.583614349E-1,-1.055965424E-1,1.913874019E-1
4.378877765E0,3.134885430E-2,1.312625408E-1,-1.525220871E-1,2.036555728E-1
4.383893703E0,3.307449818E-2,1.346068382E-1,-1.679611206E-1,2.177702031E-1
4.388909484E0,1.803371310E-2,1.421914101E-1,-1.427488327E-1,2.022890040E-1
4.393925422E0,2.686417103E-2,1.348755360E-1,-1.555347443E-1,2.076153910E-1
4.398941307E0,2.867448330E-2,1.081686020E-1,-1.419639587E-1,1.807662525E-1
4.403957088E0,2.560034394E-2,9.560394287E-2,-1.189203262E-1,1.547175992E-1
4.408973026E0,1.783016324E-2,7.576060295E-2,-9.126663208E-2,1.199465790E-1
4.413988807E0,1.252606511E-2,5.824017525E-2,-7.805061340E-2,9.818716094E-2
4.419004745E0,3.334254026E-2,7.174038887E-2,-4.600429535E-2,9.151395291E-2
4.424020526E0,1.598191261E-2,4.234766960E-2,-3.324890137E-2,5.616258624E-2
4.429036463E0,1.792451739E-2,7.261943817E-2,-1.118278503E-2,7.563019110E-2
4.434052245E0,3.393521905E-2,5.279612541E-2,8.275032043E-3,6.330486637E-2
4.439068182E0,1.656129956E-2,8.059978485E-2,1.803684235E-2,8.423734114E-2
4.444084067E0,3.713646531E-2,1.101193428E-1,-2.439308167E-2,1.187451437E-1
4.449099849E0,5.026760697E-2,1.529836655E-1,-6.151580811E-2,1.723804770E-1
4.454115786E0,3.823578358E-3,2.083814144E-1,-1.738424301E-1,2.714012235E-1
4.459131567E0,1.497122645E-2,2.613430023E-1,-3.130578995E-1,4.080803241E-1
4.464147505E0,2.394989133E-2,2.237014771E-1,-4.717111588E-1,5.226158871E-1
4.469163286E0,3.300973773E-2,2.031517029E-1,-5.594816208E-1,5.961375187E-1
4.474179224E0,-1.963308454E-2,1.712169647E-1,-5.224323273E-1,5.501238439E-1
4.479195005E0,2.053767443E-2,1.926772594E-1,-3.950605392E-1,4.400217632E-1
4.484210942E0,4.599776864E-2,2.150731087E-1,-2.826766968E-1,3.581596735E-1
4.489226724E0,4.984223843E-2,2.431685925E-1,-2.065515518E-1,3.229222145E-1
4.494242661E0,2.730473876E-2,2.718546391E-1,-2.018957138E-1,3.397239656E-1
4.499258442E0,2.899265289E-2,1.987934113E-1,-2.989349365E-1,3.601686974E-1
4.504274380E0,4.756638408E-2,7.981014252E-2,-4.043788910E-1,4.149150602E-1
4.509290161E0,-9.687513113E-3,4.644989967E-2,-3.308095932E-1,3.341951945E-1
4.514306099E0,-2.655953169E-3,3.206849098E-2,-1.724729538E-1,1.754490296E-1
4.519321984E0,5.193004012E-2,-7.116794586E-4,5.558967590E-3,5.223157738E-2
4.524337765E0,4.149407148E-2,-2.758431435E-2,1.626663208E-1,1.701263774E-1
4.529353703E0,3.333941102E-2,1.783132553E-2,2.729253769E-1,2.755317293E-1
4.534369484E0,3.259927034E-2,2.558159828E-2,2.346782684E-1,2.383086660E-1
4.539385422E0,1.427233219E-3,-1.362729073E-2,1.322908401E-1,1.329985204E-1
4.544401203E0,8.742600679E-3,-6.797385216E-2,8.247947693E-2,1.072368489E-1
4.549417140E0,-3.093481064E-4,-1.151576042E-1,2.246551514E-1,2.524506022E-1
4.554432922E0,-4.407644272E-3,-9.527444839E-2,4.336175919E-1,4.439829544E-1
4.559448859E0,1.997610927E-2,-1.126194000E-1,6.041736603E-1,6.149048593E-1
4.564464640E0,3.706559539E-2,-1.377465725E-1,7.578554153E-1,7.711632818E-1
4.569480578E0,3.254619241E-2,-9.713554382E-2,8.830108643E-1,8.889334930E-1
4.574496463E0,2.543249726E-2,-1.294193268E-1,8.351926804E-1,8.455430133E-1
4.579512245E0,2.775534987E-2,-1.847181320E-1,6.872434616E-1,7.121760479E-1
4.584528182E0,-1.021191478E-2,-1.826870441E-1,5.066366196E-1,5.386645557E-1
4.589543963E0,-1.447749138E-2,-1.528084278E-1,3.768863678E-1,4.069439121E-1
4.594559901E0,1.460018754E-2,-1.027834415E-1,2.525644302E-1,2.730684763E-1
4.599575682E0,-3.928542137E-3,-5.657649040E-2,1.929931641E-1,2.011534093E-1
4.604591620E0,-3.910300136E-2,3.297305107E-2,1.811313629E-1,1.882148704E-1
4.609607401E0,1.152318716E-2,9.655332565E-2,1.406259537E-1,1.709707208E-1
4.614623338E0,2.366319299E-2,1.365466118E-1,1.192617416E-1,1.828340420E-1
4.619639120E0,4.144430161E-3,2.331874371E-1,9.810066223E-2,2.530163968E-1
4.624655057E0,1.057380438E-2,3.421263695E-1,-1.990032196E-2,3.428677308E-1
4.629670942E0,1.460388303E-2,3.958961964E-1,-2.930631638E-1,4.927809753E-1
4.634686724E0,-4.826873541E-3,3.845405579E-1,-5.726661682E-1,6.898124959E-1
4.639702661E0,-9.359151125E-3,3.632318974E-1,-7.708415985E-1,8.521864672E-1
4.644718442E0,9.554058313E-3,3.631289005E-1,-6.793813705E-1,7.703979005E-1
4.649734380E0,5.156886578E-2,5.073404312E-1,-5.546998978E-1,7.534889765E-1
4.654750161E0,6.930267811E-2,5.851920843E-1,-5.394144058E-1,7.988870621E-1
4.659766099E0,6.550714374E-2,5.707564354E-1,-6.729202271E-1,8.848026483E-1
4.664781880E0,3.330299258E-2,5.025770664E-1,-8.233861923E-1,9.652241287E-1
4.669797817E0,-5.496233702E-3,4.287028313E-1,-8.886661530E-1,9.866832610E-1
4.674813599E0,-8.035302162E-3,3.522702456E-1,-8.673171997E-1,9.361613199E-1
4.679829536E0,3.165462613E-2,3.285012245E-1,-6.343832016E-1,7.150923831E-1
4.684845422E0,1.395434141E-2,3.646808863E-1,-4.126157761E-1,5.508526583E-1
4.689861203E0,3.457567096E-2,3.042843342E-1,-3.042001724E-1,4.316505276E-1
4.694877140E0,-2.209365368E-3,2.810387611E-1,-2.060956955E-1,3.485155696E-1
4.699892922E0,8.933931589E-3,3.090012074E-1,-1.467657089E-1,3.422013071E-1
4.704908859E0,3.914210200E-2,2.502117157E-1,-1.900453568E-1,3.166310857E-1
4.709924640E0,7.826477289E-3,1.796616316E-1,-1.310644150E-1,2.225251367E-1
4.714940578E0,-1.384255290E-2,7.435226440E-2,-1.352214813E-2,7.682918705E-2
4.719956359E0,2.641993761E-2,4.676079750E-2,1.453590393E-1,1.549639816E-1
4.724972297E0,3.260633349E-2,8.703696728E-2,2.882366180E-1,3.028513738E-1
4.729988078E0,7.725775242E-3,1.730550528E-1,3.986635208E-1,4.346726834E-1
4.735004015E0,1.129552722E-2,1.734457016E-1,2.775735855E-1,3.275028179E-1
4.740019901E0,-3.988951445E-3,1.201087236E-1,9.622764587E-2,1.539538147E-1
4.745035682E0,-3.334617615E-2,3.096973896E-2,3.367424011E-3,4.563366892E-2
4.750051620E0,1.175802946E-2,3.270840645E-2,6.068229675E-3,3.528334622E-2
4.755067401E0,1.802048087E-2,1.301217079E-1,7.552814484E-2,1.515285361E-1
4.760083338E0,3.118211031E-2,2.409859896E-1,1.185283661E-1,2.703618774E-1
4.765099120E0,1.354396343E-2,2.547909021E-1,-1.070880890E-2,2.553752559E-1
4.770115057E0,3.212517500E-2,1.857320070E-1,-2.306480408E-1,2.978706498E-1
4.775130838E0,5.562216043E-3,1.630893946E-1,-2.973146439E-1,3.391534849E-1
4.780146776E0,1.053681970E-2,1.708362103E-1,-2.325534821E-1,2.887510300E-1
4.785162557E0,4.873102903E-2,1.689473391E-1,-5.573272705E-2,1.844561016E-1
4.790178495E0,1.250007749E-2,2.269263268E-1,1.708211899E-1,2.843091427E-1
4.795194380E0,9.444922209E-3,2.608280778E-1,2.031793594E-1,3.307602528E-1
4.800210161E0,4.234981537E-2,1.773750186E-1,8.939552307E-2,2.030934849E-1
4.805226099E0,1.336258650E-2,1.103190780E-1,1.379299164E-2,1.119781421E-1
4.810241880E0,6.031811237E-3,1.056039929E-1,1.213359833E-2,1.064697623E-1
4.815257817E0,2.264541388E-2,1.894282103E-1,1.225900650E-1,2.267690139E-1
4.820273599E0,1.262959838E-2,1.825334430E-1,1.800308228E-1,2.566886474E-1
4.825289536E0,4.570859671E-2,1.422915459E-1,1.725721359E-1,2.282921416E-1
4.830305422E0,2.419203520E-3,1.070482731E-1,1.576700211E-1,1.905912402E-1
4.835321203E0,-5.027204752E-3,8.892136812E-2,1.472930908E-1,1.721265148E-1
4.840337088E0,-7.347136736E-3,7.835656404E-2,1.820716858E-1,1.983527926E-1
4.845352974E0,-6.428360939E-5,3.762805462E-2,2.069272995E-1,2.103206645E-1
4.850368859E0,1.931124926E-2,5.555027723E-2,2.816448212E-1,2.877195908E-1
4.855384640E0,9.914338589E-3,5.108064413E-2,3.965997696E-1,3.999986294E-1
4.860400578E0,1.259618998E-2,1.499032974E-2,4.752225876E-1,4.756257791E-1
4.865416359E0,5.364009738E-2,-3.300476074E-2,5.319032669E-1,5.356189500E-1
4.870432297E0,4.827263951E-2,-2.627509832E-2,6.050109863E-1,6.075021993E-1
4.875448078E0,4.479676485E-3,5.157929659E-2,6.228017807E-1,6.249500375E-1
4.880464015E0,-3.716361523E-2,7.553294301E-2,4.730129242E-1,4.804451959E-1
4.885479901E0,-4.025575519E-2,8.286544681E-2,2.778320312E-1,2.927077821E-1
4.890495682E0,-9.633719921E-3,9.019199014E-2,1.305809021E-1,1.589930050E-1
4.895511620E0,-2.894699574E-3,6.175316870E-2,5.989170074E-2,8.607467077E-2
4.900527401E0,2.093520761E-2,6.006872654E-2,1.326036453E-1,1.470723005E-1
4.905543338E0,3.995436430E-2,9.736025333E-2,2.792053223E-1,2.983805995E-1
4.910559120E0,2.768772840E-2,1.236677095E-1,4.015760422E-1,4.210981244E-1
4.915575057E0,2.016359568E-2,1.555563956E-1,4.399776459E-1,4.671024424E-1
4.920590838E0,8.045136929E-3,1.475727111E-1,4.375562668E-1,4.618418733E-1
4.925606776E0,7.811754942E-3,1.641321927E-1,3.848161697E-1,4.184302626E-1
4.930622661E0,1.251253486E-2,1.547280103E-1,3.248624802E-1,3.600457634E-1
4.935638442E0,4.923433065E-3,1.767217517E-1,2.816324234E-1,3.325231415E-1
4.940654380E0,1.874524355E-2,2.127955705E-1,2.574949265E-1,3.345698374E-1
4.945670161E0,2.053594589E-2,2.265334129E-1,1.591682434E-1,2.776214004E-1
4.950686099E0,2.459761500E-2,2.081186175E-1,3.695106506E-2,2.127998657E-1
4.955701880E0,1.708960533E-2,2.001228631E-1,-7.807636261E-2,2.154927686E-1
4.960717817E0,-7.353633642E-3,2.216362953E-1,-1.476583481E-1,2.664201777E-1
4.965733599E0,3.805908561E-2,2.200811207E-1,-1.384181976E-1,2.627618525E-1
4.970749536E0,1.649457216E-2,2.291315645E-1,-7.436370850E-2,2.414607751E-1
4.975765422E0,-1.705718040E-2,2.538608611E-1,8.563995361E-3,2.545773482E-1
4.980781203E0,2.358794212E-2,2.727912366E-1,7.445907593E-2,2.837527159E-1
4.985797140E0,3.059080243E-2,2.504561245E-1,1.233501434E-1,2.808546339E-1
4.990812922E0,3.301471472E-2,2.206536829E-1,1.839427948E-1,2.891590755E-1
4.995828859E0,-2.191638947E-2,2.265238166E-1,2.347068787E-1,3.269261178E-1
5.000844640E0,1.611897349E-2,2.058259547E-1,2.756643295E-1,3.444052373E-1
5.005860578E0,2.290272713E-2,1.443017125E-1,2.231302261E-1,2.667107365E-1
5.010876359E0,-1.073354483E-2,1.062651873E-1,1.728343964E-1,2.031729007E-1
5.015892297E0,-3.953489661E-2,5.585700274E-2,8.891105652E-2,1.121970979E-1
5.020908078E0,-2.771389484E-2,6.721204519E-2,9.573554993E-2,1.202115407E-1
5.025924015E0,1.060438156E-2,8.301645517E-2,1.716699600E-1,1.909836640E-1
5.030939901E0,-1.302123070E-3,8.704179525E-2,2.760171890E-1,2.894191740E-1
5.035955682E0,1.055052876E-2,1.079561710E-1,3.752727509E-1,3.906347220E-1
5.040971620E0,-7.081064582E-2,1.595231891E-1,4.048299789E-1,4.408504364E-1
5.045987401E0,-8.025634289E-2,3.115744591E-1,3.982906342E-1,5.120108919E-1
5.051003338E0,-1.971293986E-1,2.456348538E-1,3.245830536E-1,4.522727494E-1
5.056019120E0,-4.059514403E-2,-3.053879738E-2,2.435770035E-1,2.488178862E-1
5.061035057E0,3.049953282E-1,-1.906302571E-1,2.749385834E-1,4.527176491E-1
5.066050942E0,1.638066173E-1,-2.221633196E-1,5.453815460E-1,6.112529584E-1
5.071066724E0,-6.684452295E-3,-1.301743984E-1,6.863832474E-1,6.986501400E-1
5.076082661E0,-1.101883650E-1,2.477407455E-3,5.257863998E-1,5.372140650E-1
5.081098442E0,-9.336632490E-2,1.518797874E-2,2.241010666E-1,2.432472680E-1
5.086114380E0,-6.388795376E-2,-4.147672653E-2,8.280372620E-2,1.125097620E-1
5.091130161E0,-6.755968928E-2,-1.804877520E-1,2.381582260E-1,3.063649471E-1
5.096146099E0,1.077746898E-1,-1.856408119E-1,6.229982376E-1,6.589421059E-1
5.101161880E0,1.153124720E-1,-5.649256706E-2,1.033895493E0,1.041838887E0
5.106177817E0,-4.057270288E-2,1.306068897E-2,1.160014153E0,1.160796950E0
5.111193599E0,-1.147579253E-1,-1.097993851E-1,9.369506836E-1,9.503167208E-1
5.116209536E0,-3.970474005E-3,-2.386132479E-1,5.683393478E-1,6.164103025E-1
5.121225422E0,8.291172981E-2,-2.891972065E-1,4.298686981E-1,5.246870275E-1
5.126241203E0,9.236037731E-3,-2.661681175E-1,5.356597900E-1,5.982158322E-1
5.131257140E0,-6.956475973E-2,-1.670774221E-1,7.061214447E-1,7.289455504E-1
5.136272922E0,-2.897009254E-2,-1.570442915E-1,7.498846054E-1,7.667001351E-1
5.141288859E0,-9.812554717E-2,-1.476037502E-1,7.531642914E-1,7.737389352E-1
5.146304640E0,-1.172699928E-1,-1.506267786E-1,7.232255936E-1,7.479946102E-1
5.151320578E0,-6.693497300E-2,-2.404277325E-1,7.222480774E-1,7.641518635E-1
5.156336463E0,6.484103203E-2,-2.520391941E-1,6.975717545E-1,7.445364111E-1
5.161352245E0,1.536819637E-1,-2.859990597E-1,7.066164017E-1,7.776376709E-1
5.166368182E0,8.923292160E-2,-2.137236595E-1,7.516632080E-1,7.865353744E-1
5.171383963E0,2.212381363E-2,-1.310185194E-1,6.676874161E-1,6.807802885E-1
5.176399901E0,1.731801033E-2,-1.103196144E-1,5.097198486E-1,5.218090215E-1
5.181415682E0,-3.057482839E-2,-1.566525698E-1,3.686704636E-1,4.017371758E-1
5.186431620E0,1.747316122E-2,-7.167363167E-2,3.114204407E-1,3.200392346E-1
5.191447401E0,3.170639277E-3,-1.232037544E-1,3.307332993E-1,3.529500436E-1
5.196463338E0,1.038620323E-1,-8.878827095E-2,3.882265091E-1,4.115707730E-1
5.201479224E0,7.284986973E-2,-4.968535900E-2,4.551925659E-1,4.636550555E-1
5.206495005E0,6.317755580E-2,2.958190441E-2,5.148200989E-1,5.195250012E-1
5.211510942E0,-5.163162947E-2,-1.403129101E-2,4.068374634E-1,4.103406194E-1
5.216526724E0,3.714558482E-2,-4.473674297E-2,2.508859634E-1,2.575362835E-1
5.221542661E0,-3.104805946E-4,3.078997135E-2,2.239618301E-1,2.260686181E-1
5.226558442E0,8.193287253E-2,-8.077120781E-2,1.539144516E-1,1.921630610E-1
5.231574380E0,6.336063147E-2,-2.401859760E-1,1.962909698E-1,3.165975640E-1
5.236590161E0,-8.599787951E-3,-1.581029892E-1,3.222684860E-1,3.590647416E-1
5.241606099E0,-1.001383662E-1,-8.140826225E-2,2.949590683E-1,3.219562851E-1
5.246621984E0,-1.221374273E-1,-1.614375114E-1,1.096153259E-1,2.302067352E-1
5.251637765E0,-6.474596262E-2,-1.466883421E-1,1.274585724E-2,1.608476492E-1
5.256653703E0,1.432913542E-2,-2.185540199E-1,5.453491211E-2,2.257105234E-1
5.261669484E0,2.130892873E-2,-3.091812134E-1,2.230262756E-1,3.818217029E-1
5.266685422E0,6.156834960E-2,-3.201568127E-1,4.129142761E-1,5.261076371E-1
5.271701203E0,3.697499633E-2,-2.852414846E-1,5.476264954E-1,6.185665957E-1
5.276717140E0,1.439556479E-2,-2.786401510E-1,5.076837540E-1,5.793016141E-1
5.281733026E0,-3.941217065E-2,-2.101346254E-1,4.246740341E-1,4.754554819E-1
5.286748807E0,-5.954435468E-2,-2.734498978E-1,3.273344040E-1,4.306601779E-1
5.291764745E0,6.410002708E-2,-3.200260401E-1,2.061452866E-1,3.860328470E-1
5.296780526E0,-1.843971014E-2,-3.307950497E-1,2.787418365E-1,4.329692821E-1
5.301796463E0,-7.483929396E-3,-2.720469236E-1,3.990612030E-1,4.830273094E-1
5.306812245E0,-8.872509003E-3,-2.775678635E-1,4.738531113E-1,5.492352968E-1
5.311828182E0,1.612284780E-2,-3.166983128E-1,4.767522812E-1,5.725823130E-1
5.316843963E0,5.769214034E-2,-3.059557676E-1,3.886728287E-1,4.979998821E-1
5.321859901E0,1.111826003E-1,-3.363330364E-1,2.862224579E-1,4.554171466E-1
5.326875786E0,-3.156712651E-2,-2.838153839E-1,2.506380081E-1,3.799566643E-1
5.331891567E0,-2.016328573E-1,-1.856204271E-1,2.299394608E-1,3.577469884E-1
5.336907505E0,-1.755475104E-1,-1.630510092E-1,2.447156906E-1,3.424738373E-1
5.341923286E0,3.076654673E-2,-2.957149744E-1,1.428241730E-1,3.298373400E-1
5.346939224E0,1.072493345E-1,-4.208509922E-1,1.389102936E-1,4.559759281E-1
5.351955005E0,9.735806286E-2,-3.747720718E-1,2.155351639E-1,4.431569757E-1
5.356970942E0,-5.524790287E-2,-2.422077656E-1,2.793807983E-1,3.738590148E-1
5.361986828E0,-2.496739626E-1,-1.379873753E-1,2.545375824E-1,3.823179098E-1
5.367002609E0,-2.453517616E-1,-2.351431847E-1,1.179876328E-1,3.597372453E-1
5.372018547E0,-2.208861709E-2,-4.058365822E-1,-1.079559326E-3,4.064386840E-1
5.377034328E0,9.045864642E-2,-5.346064568E-1,9.921264648E-2,5.512077463E-1
5.382050265E0,9.724330902E-2,-5.124807358E-1,3.197479248E-1,6.118263652E-1
5.387066047E0,-1.267164946E-2,-4.565310478E-1,5.267000198E-1,6.971327558E-1
5.392081984E0,-5.077692866E-2,-4.809712172E-1,5.017709732E-1,6.969115566E-1
5.397097765E0,-5.073040724E-2,-5.287415981E-1,3.939437866E-1,6.613115445E-1
5.402113703E0,-5.125880241E-3,-5.475395918E-1,2.869548798E-1,6.181981739E-1
5.407129588E0,9.562402964E-3,-5.753629208E-1,2.425928116E-1,6.244879521E-1
5.412145370E0,7.520884275E-3,-6.238160133E-1,3.078784943E-1,6.956954430E-1
5.417161307E0,-2.260792255E-2,-6.186040640E-1,4.820299149E-1,7.845603514E-1
5.422177088E0,8.269226551E-2,-6.378614902E-1,6.432514191E-1,9.096580015E-1
5.427193026E0,2.765810490E-2,-6.522583961E-1,7.847166061E-1,1.020777223E0
5.432208807E0,-6.739547849E-2,-6.620358229E-1,8.756780624E-1,1.099838920E0
5.437224745E0,-9.026271105E-2,-7.031263113E-1,7.977752686E-1,1.067229753E0
5.442240526E0,8.277356625E-3,-6.802781820E-1,6.663923264E-1,9.523264420E-1
5.447256463E0,-2.838939428E-3,-7.225019932E-1,5.744934082E-1,9.230708888E-1
5.452272349E0,-9.246405959E-2,-6.606917381E-1,5.051536560E-1,8.368054680E-1
5.457288130E0,-5.555137992E-2,-6.718527079E-1,4.509391785E-1,8.110598989E-1
5.462304067E0,3.854393959E-2,-6.368341446E-1,3.950462341E-1,7.504031517E-1
5.467319849E0,-1.335445046E-2,-6.603806019E-1,3.921508789E-1,7.681557085E-1
5.472335786E0,-2.444311976E-2,-6.564232111E-1,4.418334961E-1,7.916474824E-1
5.477351567E0,-3.331288695E-2,-6.515088081E-1,3.916616440E-1,7.609023057E-1
5.482367505E0,-1.618719101E-2,-6.272130013E-1,3.182878494E-1,7.035377241E-1
5.487383390E0,1.768004894E-2,-5.555741787E-1,2.502822876E-1,6.096035397E-1
5.492399172E0,-1.789456606E-2,-5.415953398E-1,1.329727173E-1,5.579672671E-1
5.497415109E0,-4.416498542E-2,-5.426582098E-1,-3.101539612E-2,5.453351569E-1
5.502430890E0,3.697219491E-2,-5.024359226E-1,-2.130413055E-1,5.469875660E-1
5.507446828E0,1.078427583E-1,-4.666671753E-1,-3.845291138E-1,6.142238618E-1
5.512462609E0,6.402900815E-2,-4.594309330E-1,-4.435844421E-1,6.418283675E-1
5.517478547E0,-1.749938726E-2,-4.355795383E-1,-3.983278275E-1,5.905089507E-1
5.522494328E0,-4.393479228E-2,-4.564065933E-1,-2.281112671E-1,5.121249794E-1
5.527510265E0,4.128982127E-2,-5.541589260E-1,1.158332825E-2,5.558157412E-1
5.532526047E0,4.246328771E-2,-5.612626076E-1,3.631162643E-1,6.698300284E-1
5.537541984E0,-2.559122443E-2,-5.518741608E-1,6.831607819E-1,8.785947040E-1
5.542557870E0,-4.617850482E-2,-5.877950191E-1,7.820701599E-1,9.794228780E-1
5.547573651E0,-1.947915554E-2,-5.863409042E-1,6.400880814E-1,8.682671509E-1
5.552589588E0,-5.515815318E-2,-5.842192173E-1,3.230972290E-1,6.698853149E-1
5.557605370E0,6.701201200E-3,-5.188143253E-1,-7.054996490E-2,5.236320347E-1
5.562621307E0,-5.307668447E-2,-4.197962284E-1,-4.359645844E-1,6.075451643E-1
5.567637088E0,-1.168340147E-1,-4.607591629E-1,-7.378110886E-1,8.776755640E-1
5.572653026E0,-7.774259150E-2,-5.807924271E-1,-8.649463654E-1,1.044746844E0
5.577668911E0,-2.213837206E-2,-6.476697922E-1,-6.974830627E-1,9.520760947E-1
5.582684692E0,-4.083424807E-2,-6.821615696E-1,-3.372859955E-1,7.620850908E-1
5.587700630E0,-5.939255655E-2,-7.785079479E-1,5.287361145E-2,7.825584448E-1
5.592716411E0,-5.439507961E-2,-8.784990311E-1,3.281517029E-1,9.393630355E-1
5.597732349E0,-1.651388407E-2,-9.671834707E-1,4.398632050E-1,1.062636445E0
5.602748130E0,-2.458043396E-2,-9.761655331E-1,4.106407166E-1,1.059305973E0
5.607764067E0,-1.419118047E-2,-9.043529034E-1,2.557096481E-1,9.399164790E-1
5.612779953E0,-2.095334232E-2,-8.836944103E-1,-2.649021149E-2,8.843396320E-1
5.617795734E0,-3.905455768E-2,-8.883175850E-1,-3.496723175E-1,9.554601613E-1
5.622811672E0,-3.804773092E-2,-9.180984497E-1,-5.615863800E-1,1.076908378E0
5.627827453E0,2.648368478E-3,-8.425526619E-1,-6.229000092E-1,1.047810299E0
5.632843390E0,7.347211242E-3,-7.669909000E-1,-5.942544937E-1,9.702924433E-1
5.637859172E0,2.900622785E-2,-7.728912830E-1,-6.547594070E-1,1.013366754E0
5.642875109E0,-4.796758294E-2,-9.308490753E-1,-7.420091629E-1,1.191368326E0
5.647890890E0,-1.229482144E-1,-1.204705238E0,-5.750741959E-1,1.340574991E0
5.652906828E0,-1.134168208E-1,-1.531295061E0,4.034996033E-3,1.535494780E0
5.657922713E0,-1.109358519E-1,-1.631855845E0,9.811258316E-1,1.907319627E0
5.662938495E0,-1.585645080E-1,-1.688912392E0,1.824310303E0,2.491119397E0
5.667954432E0,-1.426465213E-1,-1.685820341E0,2.114703655E0,2.708193088E0
5.672970213E0,-3.456642479E-2,-1.664708138E0,1.835124016E0,2.477928202E0
5.677986151E0,-8.287675679E-3,-1.544089556E0,1.144131660E0,1.921800848E0
5.683001932E0,-4.362493008E-2,-1.423360467E0,3.129892349E-1,1.458019346E0
5.688017870E0,-8.325004578E-2,-1.334541559E0,-3.536672592E-1,1.383116869E0
5.693033755E0,-5.998844653E-2,-1.300683498E0,-6.077613831E-1,1.436923824E0
5.698049536E0,-6.488424540E-2,-1.362633348E0,-4.189538956E-1,1.427060605E0
5.703065474E0,-5.569551140E-2,-1.486828804E0,1.148118973E-1,1.492294761E0
5.708081255E0,2.899846435E-2,-1.542836428E0,8.250856400E-1,1.749843269E0
5.713097192E0,4.242866859E-2,-1.407500982E0,1.328223228E0,1.935726259E0
5.718112974E0,1.161115617E-1,-1.178801298E0,1.273986340E0,1.739567644E0
5.723128911E0,1.314263791E-2,-9.792771339E-1,5.851230621E-1,1.140844175E0
5.728144692E0,-9.693521261E-2,-9.632370472E-1,-4.088029861E-1,1.050876742E0
5.733160630E0,-2.619481385E-1,-1.013873816E0,-1.135838509E0,1.544890306E0
5.738176515E0,-1.210493445E-1,-1.070329666E0,-1.196652412E0,1.610042091E0
5.743192297E0,-3.847426921E-2,-1.014337778E0,-6.745090485E-1,1.218738632E0
5.748208234E0,-5.038557202E-2,-9.102540016E-1,-3.702640533E-2,9.123990399E-1
5.753224015E0,3.589708358E-3,-8.780965805E-1,1.850538254E-1,8.973914469E-1
5.758239953E0,-4.555884749E-3,-9.046339989E-1,-1.050786972E-1,9.107277094E-1
5.763255734E0,-5.992130935E-2,-1.004599571E0,-6.328344345E-1,1.188818861E0
5.768271672E0,-5.763570219E-2,-9.266619682E-1,-1.026163101E0,1.383847892E0
5.773287453E0,1.680787280E-2,-8.620642424E-1,-1.195901871E0,1.474319690E0
5.778303390E0,-2.301377803E-2,-7.981908321E-1,-1.165073395E0,1.412456815E0
5.783319276E0,-1.456198692E-1,-8.245370388E-1,-9.659948349E-1,1.278363210E0
5.788335057E0,-5.587562174E-2,-8.092241287E-1,-7.566118240E-1,1.109246243E0
5.793350995E0,-1.256474108E-1,-8.618659973E-1,-6.367521286E-1,1.078913130E0
5.798366776E0,-5.490354449E-2,-9.007893801E-1,-6.411914825E-1,1.107051229E0
5.803382713E0,-1.770137995E-2,-8.810747862E-1,-7.167062759E-1,1.135902286E0
5.808398495E0,-9.250506759E-2,-8.928364515E-1,-7.557363510E-1,1.173393177E0
5.813414432E0,1.305983402E-2,-8.241579533E-1,-8.321962357E-1,1.171305881E0
5.818430317E0,9.399662912E-2,-6.670157909E-1,-9.151468277E-1,1.136327043E0
5.823446099E0,-1.043924317E-2,-6.741657257E-1,-1.116220474E0,1.304053891E0
5.828462036E0,-1.647395641E-2,-8.508110046E-1,-1.294243813E0,1.548940865E0
5.833477817E0,6.991442293E-2,-8.574385643E-1,-1.176194191E0,1.457230830E0
5.838493755E0,1.170243174E-1,-7.639375925E-1,-9.496812820E-1,1.224414094E0
5.843509536E0,4.419390112E-2,-6.283504963E-1,-7.985181808E-1,1.017058864E0
5.848525474E0,-3.546349332E-2,-6.318827868E-1,-8.836469650E-1,1.086906378E0
5.853541255E0,6.813842803E-2,-5.702165365E-1,-1.141617775E0,1.277920533E0
5.858557192E0,-1.656910405E-2,-4.264737368E-1,-1.417425156E0,1.480286613E0
5.863572974E0,-9.409785271E-2,-4.335188866E-1,-1.607233047E0,1.667330531E0
5.868588911E0,1.496765018E-2,-4.168704748E-1,-1.672935486E0,1.724157233E0
5.873604797E0,2.795714512E-2,-4.028961658E-1,-1.662510872E0,1.710862157E0
5.878620578E0,7.718348503E-2,-4.224201441E-1,-1.619041443E0,1.675019780E0
5.883636515E0,-7.909176499E-2,-4.511711597E-1,-1.504261017E0,1.572454174E0
5.888652297E0,-4.885223880E-2,-4.960575700E-1,-1.430606842E0,1.514957290E0
5.893668234E0,5.576992035E-2,-4.135901332E-1,-1.378905296E0,1.440675848E0
5.898684015E0,-4.321341217E-2,-4.168580174E-1,-1.401765823E0,1.463073966E0
5.903699953E0,-5.121983215E-2,-4.173363447E-1,-1.446502686E0,1.506374162E0
5.908715734E0,4.606487602E-2,-3.959379792E-1,-1.568093300E0,1.617963366E0
5.913731672E0,4.063291848E-2,-2.811537385E-1,-1.651699066E0,1.675949959E0
5.918747557E0,-1.181720272E-1,-2.309794426E-1,-1.694989204E0,1.714731622E0
5.923763338E0,-6.600791961E-2,-1.712980866E-1,-1.743445396E0,1.753083549E0
5.928779276E0,-6.168395281E-2,-9.031260014E-2,-1.780343056E0,1.783699154E0
5.933795057E0,-7.613059878E-2,-1.409983635E-1,-1.798503876E0,1.805628034E0
5.938810995E0,-1.000467688E-1,-2.015366554E-1,-1.836236000E0,1.849970007E0
5.943826776E0,-4.215084016E-2,-2.117968798E-1,-1.821741104E0,1.834495915E0
5.948842713E0,9.697228670E-4,-2.147599459E-1,-1.738349915E0,1.751565928E0
5.953858599E0,-8.492106199E-2,-2.294560075E-1,-1.657869339E0,1.675825883E0
5.958874380E0,3.296062350E-3,-1.034000516E-1,-1.716634750E0,1.719749197E0
5.963890317E0,2.189995348E-2,-1.028294265E-1,-1.914489746E0,1.917374373E0
5.968906099E0,3.294795752E-4,1.078721881E-2,-2.150835991E0,2.150863067E0
5.973922036E0,-1.261753440E-1,2.711147070E-3,-2.349089622E0,2.352477337E0
5.978937817E0,-3.481210768E-2,7.141709328E-3,-2.396875381E0,2.397138811E0
5.983953755E0,1.599118114E-3,-3.507077694E-2,-2.308676720E0,2.308943636E0
5.988969536E0,-3.594173491E-2,2.248254418E-2,-2.153975487E0,2.154392645E0
5.993985474E0,-7.377734780E-2,-2.291982621E-2,-1.968708038E0,1.970223276E0
5.999001255E0,3.010258079E-3,9.181069583E-2,-1.879638672E0,1.881881984E0
6.004017192E0,-1.702874899E-3,1.436278969E-1,-1.982288361E0,1.987485602E0
6.009033078E0,-2.957245708E-2,1.899985522E-1,-2.130531311E0,2.139190886E0
6.014048859E0,-7.371900976E-2,5.646168441E-2,-2.235836983E0,2.237764382E0
6.019064797E0,-1.486325264E-2,-4.772999883E-2,-2.142847061E0,2.143430101E0
6.024080578E0,7.684543729E-2,-1.664130390E-2,-1.892497063E0,1.894129691E0
6.029096515E0,7.708692551E-2,1.064599156E-1,-1.688246727E0,1.693355580E0
6.034112297E0,1.245964020E-1,2.106900364E-1,-1.776319504E0,1.793104998E0
6.039128234E0,7.169899344E-2,2.689261138E-1,-2.031973839E0,2.050946046E0
6.044144120E0,1.236060262E-2,2.902824879E-1,-2.366487503E0,2.384256658E0
6.049159901E0,-4.622153938E-2,2.348729521E-1,-2.435458183E0,2.447193964E0
6.054175838E0,-1.307792664E-1,4.663985968E-2,-2.263202667E0,2.267457785E0
6.059191620E0,2.102412283E-2,3.303968906E-2,-1.897953987E0,1.898357967E0
6.064207557E0,1.123475134E-1,1.178427935E-1,-1.507408142E0,1.516175516E0
6.069223338E0,4.713316262E-2,2.095147669E-1,-1.395291328E0,1.411720887E0
6.074239276E0,8.030791581E-2,3.903588653E-1,-1.611370087E0,1.659922577E0
6.079255057E0,-4.163175821E-2,3.767166734E-1,-2.059483528E0,2.094068064E0
6.084270995E0,-3.850473464E-2,3.550838232E-1,-2.435627937E0,2.461676377E0
6.089286776E0,-8.022120595E-2,3.088807464E-1,-2.539039612E0,2.559016395E0
6.094302713E0,-2.089560032E-3,2.126188874E-1,-2.384484291E0,2.393945800E0
6.099318599E0,5.833584070E-2,2.795773745E-1,-2.072791100E0,2.092374135E0
6.104334380E0,4.677829146E-2,3.274362087E-1,-1.862339973E0,1.891484300E0
6.109350317E0,-3.154963255E-3,3.865407109E-1,-1.975283623E0,2.012751615E0
6.114366099E0,5.249571800E-2,5.063582659E-1,-2.289151192E0,2.345073063E0
6.119382036E0,-1.571536064E-2,5.281823277E-1,-2.619427681E0,2.672194776E0
6.124397817E0,-6.646054983E-2,4.927514195E-1,-2.796278000E0,2.840139366E0
6.129413755E0,-5.254000425E-2,5.567730665E-1,-2.659848213E0,2.718004639E0
6.134429536E0,7.827773690E-2,7.395411134E-1,-2.387508392E0,2.500648873E0
6.139445474E0,3.664773703E-2,7.776473165E-1,-2.232831955E0,2.364660006E0
6.144461255E0,9.930133820E-5,6.975982189E-1,-2.279335022E0,2.383697008E0
6.149477192E0,-9.324075282E-2,5.616922379E-1,-2.395230293E0,2.461974851E0
6.154493078E0,-9.993717074E-2,5.139007568E-1,-2.405942917E0,2.462243437E0
6.159508859E0,-4.404875636E-2,5.304341316E-1,-2.302077293E0,2.362807763E0
6.164524797E0,-3.572705388E-2,5.453444719E-1,-2.127017021E0,2.196105285E0
6.169540578E0,-6.161123514E-3,5.636750460E-1,-1.995706558E0,2.073791741E0
6.174556515E0,-7.457327843E-2,4.301106930E-1,-1.970290184E0,2.018068332E0
6.179572297E0,-2.099820971E-2,4.601632357E-1,-1.997994423E0,2.050407970E0
6.184588234E0,-1.067826152E-2,6.627908945E-1,-2.016519547E0,2.122676819E0
6.189604015E0,-3.623205423E-2,8.292509317E-1,-2.073593140E0,2.233552860E0
6.194619953E0,1.514419913E-2,9.372224808E-1,-2.278955460E0,2.464194252E0
6.199635838E0,7.426261902E-3,8.959238529E-1,-2.474581718E0,2.631784448E0
6.204651620E0,-5.301594734E-2,7.934328318E-1,-2.571892738E0,2.692021286E0
6.209667557E0,-3.686746955E-2,6.897727251E-1,-2.592545509E0,2.682990466E0
6.214683338E0,7.496216893E-2,7.045540810E-1,-2.565318108E0,2.661366711E0
6.219699276E0,8.359849453E-2,8.182774782E-1,-2.528465271E0,2.658891379E0
6.224715057E0,2.528932691E-2,9.516924620E-1,-2.532122612E0,2.705180773E0
6.229730995E0,7.782548666E-3,1.027738690E0,-2.676506042E0,2.867052839E0
6.234746776E0,3.357034922E-2,1.058336139E0,-2.832253456E0,3.023716586E0
6.239762713E0,-3.335621953E-2,1.024363041E0,-2.879738808E0,3.056685767E0
6.244778495E0,5.273371935E-3,1.012524843E0,-2.824007034E0,3.000041682E0
6.249794432E0,1.011750102E-2,1.016319990E0,-2.648641586E0,2.836954518E0
6.254810213E0,2.223694324E-2,1.007412553E0,-2.454294205E0,2.653099051E0
6.259826151E0,7.945427299E-2,1.062211514E0,-2.362910271E0,2.591901084E0
6.264842036E0,7.216444612E-2,1.208795667E0,-2.419612885E0,2.705720086E0
6.269857817E0,-1.959562302E-3,1.224132776E0,-2.569046974E0,2.845787633E0
6.274873755E0,1.302999258E-2,1.122881174E0,-2.808715820E0,3.024882886E0
6.279889536E0,5.482321978E-2,1.058448315E0,-2.868361473E0,3.057910391E0
6.284905474E0,4.371598363E-2,1.067174196E0,-2.731640816E0,2.933024616E0
6.289921255E0,1.547729969E-2,1.142368078E0,-2.513741493E0,2.761184649E0
6.294937192E0,5.420419574E-2,1.243266702E0,-2.382117271E0,2.687588674E0
6.299952974E0,7.840606570E-2,1.269041300E0,-2.425012589E0,2.738119681E0
6.304968911E0,3.121885657E-2,1.217399359E0,-2.522635460E0,2.801200721E0
6.309984797E0,1.232773066E-3,1.096238256E0,-2.577068329E0,2.800539413E0
6.315000578E0,1.692619920E-2,1.113903999E0,-2.497582436E0,2.734773599E0
6.320016515E0,-8.110076189E-3,1.244228244E0,-2.298796654E0,2.613931092E0
6.325032297E0,1.716905832E-2,1.353767633E0,-2.138866425E0,2.531349672E0
6.330048234E0,6.405231357E-2,1.342214346E0,-2.125377655E0,2.514532208E0
6.335064015E0,4.868394136E-2,1.255482674E0,-2.136319160E0,2.478399973E0
6.340079953E0,1.935383677E-2,1.227572680E0,-2.102323532E0,2.434558171E0
6.345095734E0,-5.218565464E-3,1.320573568E0,-2.004343033E0,2.400277646E0
6.350111672E0,2.785152197E-2,1.405547857E0,-1.940607071E0,2.396308889E0
6.355127453E0,7.264411449E-2,1.467757106E0,-1.975529671E0,2.462174967E0
6.360143390E0,8.646672964E-2,1.459123850E0,-2.041939735E0,2.511182349E0
6.365159172E0,4.778212309E-2,1.465271115E0,-2.142014503E0,2.595675000E0
6.370175109E0,1.901307702E-2,1.545614481E0,-2.275589943E0,2.750926246E0
6.375190995E0,6.699404120E-2,1.666386485E0,-2.303874969E0,2.844146971E0
6.380206776E0,1.122993231E-1,1.772175550E0,-2.339261055E0,2.936896253E0
6.385222661E0,6.705179811E-2,1.790982127E0,-2.405525208E0,2.999777400E0
6.390238547E0,5.100324750E-2,1.794790268E0,-2.438107491E0,3.027910430E0
6.395254432E0,3.950902820E-2,1.807532549E0,-2.398811340E0,3.003836002E0
6.400270213E0,8.808010817E-2,1.979615688E0,-2.330658913E0,3.059184098E0
6.405286151E0,7.894846797E-2,2.045654774E0,-2.262473106E0,3.051183520E0
6.410301932E0,1.731687784E-2,1.971969962E0,-2.323228836E0,3.047352561E0
6.415317870E0,1.589810848E-2,1.983015537E0,-2.440829277E0,3.144876934E0
6.420333651E0,6.961297989E-2,2.023730040E0,-2.538696289E0,3.247354013E0
6.425349588E0,4.958578944E-2,2.101341248E0,-2.506876945E0,3.271471505E0
6.430365474E0,7.254010439E-2,2.147076607E0,-2.419901848E0,3.235911769E0
6.435381255E0,8.033806086E-2,2.164726496E0,-2.287834167E0,3.150663451E0
6.440397192E0,6.685417891E-2,2.134323597E0,-2.178070068E0,3.050212439E0
6.445412974E0,4.866135120E-2,2.141844511E0,-2.099967003E0,2.999954541E0
6.450428911E0,9.753598273E-2,2.199071407E0,-1.993985176E0,2.970085050E0
6.455444692E0,3.922587633E-2,2.231820345E0,-1.924400330E0,2.947181255E0
6.460460630E0,5.000004172E-2,2.228302956E0,-1.938349724E0,2.953816805E0
6.465476411E0,9.159670770E-2,2.299710274E0,-2.003993988E0,3.051728888E0
6.470492349E0,3.087832034E-2,2.333613396E0,-2.075695992E0,3.123334564E0
6.475508130E0,7.307718694E-2,2.318755627E0,-2.084669113E0,3.118944251E0
6.480524067E0,1.171933711E-1,2.305152416E0,-2.090699196E0,3.114239085E0
6.485539849E0,7.772445679E-2,2.325970173E0,-2.065298080E0,3.111532500E0
6.490555786E0,7.204374671E-2,2.418960810E0,-1.996866226E0,3.137520745E0
6.495571567E0,8.044798672E-2,2.469445467E0,-1.909469604E0,3.122612202E0
6.500587505E0,5.841727555E-2,2.527754068E0,-1.808044434E0,3.108372224E0
6.505603390E0,4.379655421E-2,2.491915226E0,-1.761638641E0,3.052037079E0
6.510619172E0,4.836528003E-2,2.510711670E0,-1.546936035E0,2.949410685E0
6.515635057E0,5.727568269E-2,2.469946861E0,-1.345867157E0,2.813410103E0
6.520650942E0,1.467270404E-1,2.514430046E0,-1.281575203E0,2.826008189E0
6.525666828E0,7.624635100E-2,2.553199768E0,-1.255568504E0,2.846242230E0
6.530682609E0,9.235455096E-2,2.533738136E0,-1.312499046E0,2.854997733E0
6.535698547E0,5.368694663E-2,2.553836823E0,-1.340088844E0,2.884580197E0
6.540714328E0,5.335523188E-2,2.575318813E0,-1.319645882E0,2.894232027E0
6.545730265E0,1.025265902E-1,2.488849640E0,-1.360744476E0,2.838399155E0
6.550746047E0,4.755757749E-2,2.546249151E0,-1.381862640E0,2.897445568E0
6.555761984E0,-2.373689413E-2,2.627572536E0,-1.302452087E0,2.932760187E0
6.560777765E0,1.382695287E-1,2.711509705E0,-1.204172134E0,2.970089876E0
6.565793703E0,9.725925326E-2,2.670118332E0,-1.082537651E0,2.882859524E0
6.570809484E0,3.505173326E-2,2.637191772E0,-9.780454636E-1,2.812931211E0
6.575825422E0,7.558985054E-2,2.643603802E0,-8.858327866E-1,2.789095662E0
6.580841203E0,1.704609990E-1,2.667601109E0,-8.532705307E-1,2.805926447E0
6.585857140E0,7.440039515E-2,2.647482157E0,-8.229551315E-1,2.773436918E0
6.590872922E0,3.832961619E-2,2.656691074E0,-8.136873245E-1,2.778770175E0
6.595888859E0,7.179203629E-2,2.630963802E0,-8.063316345E-1,2.752688746E0
6.600904745E0,6.709586084E-2,2.620390177E0,-7.723798752E-1,2.732675832E0
6.605920526E0,7.695144415E-2,2.606305122E0,-6.362476349E-1,2.683944666E0
6.610936463E0,1.365244687E-1,2.615631819E0,-3.848142624E-1,2.647310099E0
6.615952245E0,8.571550250E-2,2.570004940E0,-1.710529327E-1,2.577116925E0
6.620968182E0,5.912841856E-2,2.562560797E0,-4.927825928E-2,2.563716512E0
6.625983963E0,9.218319505E-2,2.551755428E0,-1.134099960E-1,2.555937271E0
6.630999901E0,7.041572034E-2,2.523079872E0,-1.932525635E-1,2.531449578E0
6.636015682E0,5.421302468E-2,2.531518698E0,-1.629247665E-1,2.537335305E0
6.641031620E0,7.357738167E-2,2.513235807E0,-7.339859009E-2,2.515383710E0
6.646047401E0,5.472563952E-2,2.519418955E0,5.149173737E-2,2.520539261E0
6.651063338E0,8.136683702E-2,2.465131998E0,1.524810791E-1,2.471183281E0
6.656079120E0,9.138640761E-2,2.508263588E0,2.200307846E-1,2.519553780E0
6.661095057E0,8.938694745E-2,2.464693308E0,2.493610382E-1,2.478887665E0
6.666110838E0,3.227299824E-2,2.501673460E0,3.338365555E-1,2.524055961E0
6.671126776E0,7.825529575E-2,2.489892006E0,3.945055008E-1,2.522165871E0
6.676142557E0,8.367322385E-2,2.513188362E0,4.720125198E-1,2.558498148E0
6.681158495E0,2.871585265E-2,2.459074259E0,5.424327850E-1,2.518353457E0
6.686174276E0,1.627451479E-1,2.532549620E0,5.175104141E-1,2.590002044E0
6.691190213E0,1.369771361E-1,2.531980991E0,4.859972000E-1,2.581837283E0
6.696205995E0,7.764548063E-2,2.457839489E0,4.716863632E-1,2.503895325E0
6.701221932E0,2.292257734E-2,2.404081345E0,6.417427063E-1,2.488366182E0
6.706237817E0,2.554999478E-2,2.406459808E0,7.879257202E-1,2.532297090E0
6.711253599E0,8.794832230E-2,2.402734518E0,9.102506638E-1,2.570880072E0
6.716269536E0,1.814268529E-1,2.424140453E0,9.608745575E-1,2.613934306E0
6.721285317E0,1.788006276E-1,2.374647856E0,9.447460175E-1,2.561926451E0
6.726301255E0,6.347910501E-3,2.347091913E0,9.146661758E-1,2.519026589E0
6.731317036E0,5.187544227E-2,2.281399012E0,8.204784393E-1,2.425006677E0
6.736332974E0,1.359722167E-1,2.261769772E0,9.060125351E-1,2.440276553E0
6.741348755E0,4.996472597E-2,2.202450275E0,1.137452126E0,2.479330762E0
6.746364692E0,1.314018816E-1,2.127960205E0,1.339913368E0,2.518104232E0
6.751380474E0,2.596636489E-2,2.093375444E0,1.518188477E0,2.586076421E0
6.756396411E0,8.313582838E-2,2.036741495E0,1.629197121E0,2.609503926E0
6.761412192E0,1.833834648E-1,1.974589229E0,1.663502693E0,2.588411352E0
6.766428130E0,-1.789296046E-2,1.902050376E0,1.637948036E0,2.510177197E0
6.771443911E0,8.488945663E-2,1.886061311E0,1.626723289E0,2.492120011E0
6.776459849E0,2.484426647E-2,1.814492583E0,1.691904068E0,2.481036063E0
6.781475630E0,6.019447371E-2,1.737749100E0,1.780755520E0,2.488872341E0
6.786491567E0,1.175200045E-1,1.753750920E0,1.907609463E0,2.593921183E0
6.791507349E0,4.530096054E-2,1.683559775E0,2.010149002E0,2.622427254E0
6.796523286E0,9.526377916E-2,1.541749477E0,2.097943306E0,2.605270188E0
6.801539067E0,9.472119808E-2,1.459748507E0,2.178219795E0,2.623829126E0
6.806555005E0,1.038866043E-1,1.394316912E0,2.251005650E0,2.649894057E0
6.811570786E0,1.531603187E-2,1.285782576E0,2.285200119E0,2.622138630E0
6.816586724E0,1.495130062E-1,1.116149068E0,2.397840500E0,2.649109651E0
6.821602505E0,4.861094058E-2,1.146366477E0,2.629462719E0,2.868901064E0
6.826618442E0,2.301551402E-3,1.165468693E0,2.767173290E0,3.002593977E0
6.831634328E0,1.709704846E-1,1.230505109E0,2.715509415E0,2.986195759E0
6.836650109E0,2.069480121E-1,1.342462778E0,2.520342827E0,2.863068591E0
6.841666047E0,5.129081756E-2,1.456043720E0,2.196480751E0,2.635758288E0
6.846681828E0,-9.782865644E-3,1.376008987E0,1.737050056E0,2.216041366E0
6.851697765E0,2.831226587E-2,1.121746421E0,1.433855057E0,1.820729783E0
6.856713547E0,2.007134259E-3,8.336234093E-1,1.582952499E0,1.789041820E0
6.861729484E0,2.811821550E-2,6.850116253E-1,2.104687214E0,2.213535595E0
6.866745265E0,1.777897179E-1,6.314309239E-1,2.649346352E0,2.729349792E0
6.871761203E0,1.372617185E-1,7.010017037E-1,2.920438766E0,3.006527358E0
6.876776984E0,3.169511259E-2,7.487859726E-1,2.688847542E0,2.791341275E0
6.881792922E0,1.182934567E-1,7.442452312E-1,2.098752022E0,2.229944922E0
6.886808703E0,-2.637851238E-2,6.104106307E-1,1.640713692E0,1.750782220E0
6.891824640E0,2.847733349E-2,5.541894436E-1,1.606088638E0,1.699252074E0
6.896840422E0,9.271500260E-2,3.519265056E-1,1.865077019E0,1.900252779E0
6.901856359E0,-1.087573171E-2,8.168005943E-2,2.338277340E0,2.339728795E0
6.906872140E0,7.163668424E-2,1.356989145E-2,2.724122524E0,2.725098069E0
6.911888078E0,2.206726074E-1,-2.865487337E-2,2.864839077E0,2.873468364E0
6.916903859E0,2.161098272E-1,-1.626109630E-1,2.720083237E0,2.733495674E0
6.921919797E0,-8.003279567E-2,-3.047646284E-1,2.512557030E0,2.532238053E0
6.926935578E0,-5.965621769E-2,-3.424437940E-1,2.383373260E0,2.408587701E0
6.931951515E0,-1.559469104E-2,-5.856545568E-1,2.430461884E0,2.500075883E0
6.936967297E0,1.664792001E-2,-7.174780965E-1,2.718176842E0,2.811323054E0
6.941983234E0,4.820387065E-2,-8.301869631E-1,3.071736813E0,3.182310647E0
6.946999015E0,7.187850773E-2,-8.638010025E-1,3.330922604E0,3.441854745E0
6.952014953E0,9.544911236E-2,-8.617960215E-1,3.373942852E0,3.483574785E0
6.957030734E0,-7.973808050E-2,-1.021034598E0,3.189133167E0,3.349543278E0
6.962046672E0,-2.445605397E-2,-1.104924202E0,2.965671539E0,3.164911258E0
6.967062453E0,-2.454206347E-3,-1.273094416E0,2.914099216E0,3.180054977E0
6.972078390E0,1.699812710E-2,-1.269388080E0,3.041439056E0,3.295752807E0
6.977094172E0,-4.278747737E-2,-1.232734919E0,3.158613682E0,3.390915295E0
6.982110109E0,-7.407090068E-2,-1.316237211E0,3.148508549E0,3.413366809E0
6.987125890E0,7.660288364E-2,-1.479686260E0,2.982564449E0,3.330319823E0
6.992141828E0,-1.224249601E-2,-1.584213018E0,2.869049072E0,3.277395818E0
6.997157609E0,1.142913103E-2,-1.530121446E0,2.834149361E0,3.220839155E0
7.002173547E0,-1.017284244E-1,-1.542137623E0,2.784564972E0,3.184703943E0
7.007189328E0,-1.941323280E-3,-1.649433017E0,2.641347885E0,3.114057112E0
7.012205265E0,-5.548614264E-2,-1.799606919E0,2.514572620E0,3.092691262E0
7.017221047E0,7.301127911E-2,-1.839452982E0,2.423357964E0,3.043284696E0
7.022236984E0,-1.420477033E-2,-1.929135442E0,2.453776836E0,3.121343636E0
7.027252765E0,-3.700695932E-2,-1.882175088E0,2.486114979E0,3.118448375E0
7.032268703E0,-5.061315000E-2,-1.938026667E0,2.415136814E0,3.096997721E0
7.037284484E0,3.189674020E-2,-2.003420115E0,2.324627399E0,3.068974113E0
7.042300422E0,-6.557556987E-2,-2.123624563E0,2.255302429E0,3.098462601E0
7.047316203E0,-9.636774659E-3,-2.140141726E0,2.326786041E0,3.161365647E0
7.052332140E0,-4.815946519E-2,-2.253952026E0,2.273534775E0,3.201808777E0
7.057347922E0,-7.449066639E-2,-2.288141489E0,2.322814941E0,3.261381545E0
7.062363859E0,-1.010486037E-1,-2.319120407E0,2.240230083E0,3.226013191E0
7.067379640E0,-1.232496798E-1,-2.404570818E0,2.140677929E0,3.221746933E0
7.072395578E0,-1.886705011E-1,-2.520457506E0,2.064844131E0,3.263722397E0
7.077411359E0,-5.292297900E-2,-2.564001560E0,1.995943546E0,3.249722370E0
7.082427297E0,-7.820509374E-2,-2.647164583E0,1.941284180E0,3.283623096E0
7.087443078E0,-1.061921716E-1,-2.700551271E0,1.991723061E0,3.357262977E0
7.092459015E0,-1.102529168E-1,-2.700437307E0,1.989290237E0,3.355859503E0
7.097474797E0,-9.548784792E-2,-2.794849873E0,1.917407513E0,3.390686554E0
7.102490734E0,-5.037710071E-2,-2.864262581E0,1.814409256E0,3.390961358E0
7.107506515E0,9.342283010E-3,-2.892462254E0,1.696939945E0,3.353510153E0
7.112522453E0,-9.845629334E-2,-2.898319006E0,1.658370018E0,3.340679245E0
7.117538234E0,-7.946845889E-2,-3.006103754E0,1.564736366E0,3.389893053E0
7.122554172E0,-1.500913501E-2,-3.103001356E0,1.550108910E0,3.468671262E0
7.127569953E0,-2.536448836E-2,-3.045618296E0,1.576147079E0,3.429383877E0
7.132585890E0,-8.106611669E-2,-3.056497097E0,1.578250885E0,3.440875190E0
7.137601672E0,-6.763929129E-2,-3.157104015E0,1.434520721E0,3.468390194E0
7.142617609E0,-4.179915786E-2,-3.245415688E0,1.334030151E0,3.509146135E0
7.147633390E0,-8.278007805E-2,-3.184387684E0,1.334346771E0,3.453644274E0
7.152649328E0,-8.565883338E-2,-3.124537468E0,1.387256145E0,3.419729732E0
7.157665109E0,-1.054547429E-1,-3.194369793E0,1.295185089E0,3.448568325E0
7.162681047E0,-1.298601627E-1,-3.193620205E0,1.156620979E0,3.399094845E0
7.167696828E0,-4.013815522E-2,-3.239100933E0,9.625024796E-1,3.379319007E0
7.172712765E0,-1.206785440E-3,-3.209557533E0,8.461952209E-1,3.319232949E0
7.177728547E0,-1.571814418E-1,-3.174285173E0,8.498487473E-1,3.289838182E0
7.182744484E0,-1.627994925E-1,-3.225515604E0,7.589435577E-1,3.317597008E0
7.187760265E0,-7.125028968E-2,-3.293796539E0,6.454629898E-1,3.357200429E0
7.192776203E0,-2.278786898E-2,-3.187187910E0,6.400146484E-1,3.250892925E0
7.197791984E0,-2.127217650E-1,-3.149262428E0,5.589237213E-1,3.205542094E0
7.202807922E0,-9.236279130E-2,-3.183874130E0,4.361648560E-1,3.214937813E0
7.207823703E0,-5.850927532E-2,-3.195237875E0,3.956212997E-1,3.220168416E0
7.212839640E0,-5.873769522E-2,-3.172047138E0,3.771524429E-1,3.194929910E0
7.217855422E0,-6.350933015E-2,-3.093250036E0,3.188323975E-1,3.110286694E0
7.222871359E0,-6.585598737E-2,-3.109028578E0,1.449785233E-1,3.113103673E0
7.227887140E0,-7.566855848E-2,-3.090668440E0,3.690814972E-2,3.091814895E0
7.232903078E0,-1.835273951E-2,-3.038648844E0,-1.080865860E-1,3.040625976E0
7.237918859E0,-4.949612916E-2,-3.000765562E0,-2.279691696E-1,3.009819557E0
7.242934797E0,-7.626016438E-2,-2.981714725E0,-3.348369598E-1,3.001425346E0
7.247950578E0,-1.405375451E-1,-2.910437107E0,-4.075403214E-1,2.942190352E0
7.252966515E0,-1.022405103E-1,-2.830513954E0,-5.628395081E-1,2.887741449E0
7.257982297E0,-9.734294564E-2,-2.824816942E0,-7.097272873E-1,2.914237332E0
7.262998234E0,-2.359678596E-2,-2.880942106E0,-7.319717407E-1,2.972569067E0
7.268014015E0,-1.312770545E-1,-2.787291050E0,-7.208948135E-1,2.881998334E0
7.273029953E0,-1.148452014E-1,-2.715292692E0,-6.432847977E-1,2.792815632E0
7.278045734E0,-1.644294560E-1,-2.717929125E0,-7.545528412E-1,2.825513363E0
7.283061672E0,-1.154871807E-1,-2.730157375E0,-9.327335358E-1,2.887401675E0
7.288077453E0,-2.187859267E-3,-2.695420504E0,-1.178029060E0,2.941606525E0
7.293093390E0,-5.623499677E-2,-2.640107155E0,-1.373215675E0,2.976415538E0
7.298109172E0,-1.343477070E-1,-2.595134735E0,-1.468080521E0,2.984632978E0
7.303125109E0,-1.788671613E-1,-2.624830246E0,-1.510500908E0,3.033700756E0
7.308140890E0,-6.752046943E-2,-2.623508930E0,-1.464546204E0,3.005370810E0
7.313156828E0,-5.188766122E-2,-2.710008144E0,-1.385046959E0,3.043877716E0
7.318172609E0,-5.789292604E-2,-2.701654911E0,-1.197607040E0,2.955766140E0
7.323188547E0,-1.475815028E-1,-2.681910515E0,-1.071988106E0,2.891985963E0
7.328204328E0,-8.873347938E-2,-2.703261375E0,-1.120430946E0,2.927603320E0
7.333220265E0,-4.200174659E-2,-2.696239710E0,-1.232679367E0,2.964957191E0
7.338236047E0,-9.567098320E-2,-2.658117294E0,-1.288943291E0,2.955692016E0
7.343251984E0,-9.676899761E-2,-2.624724150E0,-1.322723389E0,2.940771712E0
7.348267765E0,-1.195403785E-1,-2.598368645E0,-1.355523109E0,2.933130140E0
7.353283703E0,-2.738058381E-2,-2.588261604E0,-1.408718109E0,2.946919500E0
7.358299484E0,-5.023917183E-2,-2.494335175E0,-1.468071938E0,2.894730929E0
7.363315422E0,-1.180869490E-1,-2.407558680E0,-1.569434166E0,2.876353060E0
7.368331203E0,-1.477793306E-1,-2.299471855E0,-1.703280449E0,2.865409889E0
7.373347140E0,-2.230370939E-1,-2.308813095E0,-1.773930550E0,2.920135793E0
7.378362922E0,-8.523152769E-2,-2.291916370E0,-1.822091103E0,2.929191194E0
7.383378807E0,4.268221557E-2,-2.337123871E0,-1.859687805E0,2.987040089E0
7.388394692E0,1.520100236E-2,-2.293769598E0,-1.769590378E0,2.897077863E0
7.393410474E0,-8.170126379E-2,-2.195086002E0,-1.723993301E0,2.792352155E0
7.398426411E0,-1.526656002E-1,-2.198921204E0,-1.758708954E0,2.819861420E0
7.403442192E0,-3.432545811E-2,-2.135648727E0,-1.842660904E0,2.820917037E0
7.408458130E0,1.945238560E-2,-1.993687272E0,-1.985472679E0,2.813764221E0
7.413473911E0,-1.110615134E-1,-1.897408605E0,-2.112942696E0,2.842010012E0
7.418489849E0,-1.050805897E-1,-1.887994885E0,-2.261188507E0,2.947632963E0
7.423505630E0,-9.868352115E-2,-1.876806974E0,-2.329744339E0,2.993301111E0
7.428521567E0,-9.451198578E-2,-1.968401551E0,-2.306535721E0,3.033750849E0
7.433537349E0,-6.261765957E-3,-2.032466412E0,-2.107628822E0,2.927978514E0
7.438553286E0,-2.852243185E-2,-1.824825764E0,-1.867084503E0,2.610901595E0
7.443569067E0,-1.496424377E-1,-1.616378784E0,-1.809895515E0,2.431212662E0
7.448585005E0,-1.364937723E-1,-1.541533589E0,-2.062766075E0,2.578751682E0
7.453600786E0,1.019115150E-1,-1.509687781E0,-2.508326530E0,2.929376237E0
7.458616724E0,2.951177955E-2,-1.516613007E0,-2.766390800E0,3.154980827E0
7.463632505E0,-1.789219081E-1,-1.478345037E0,-2.743897438E0,3.121936938E0
7.468648442E0,-5.471049249E-2,-1.372673631E0,-2.596420288E0,2.937452033E0
7.473664224E0,6.950554252E-2,-1.359570742E0,-2.429267883E0,2.784709333E0
7.478680161E0,-3.864507377E-2,-1.355040669E0,-2.256819725E0,2.632653401E0
7.483695942E0,-9.453981370E-2,-1.416445732E0,-2.248915672E0,2.659488295E0
7.488711880E0,-7.156921923E-2,-1.408114552E0,-2.391274452E0,2.775986717E0
7.493727661E0,6.186598539E-2,-1.270826578E0,-2.604978561E0,2.899093116E0
7.498743599E0,1.348515004E-1,-1.048703671E0,-2.873524666E0,3.061879867E0
7.503759380E0,-4.087589681E-2,-8.716676235E-1,-3.044013977E0,3.166622235E0
7.508775265E0,-3.201694787E-2,-7.185573578E-1,-3.255369186E0,3.333883366E0
7.513791151E0,-1.306559443E-1,-7.734551430E-1,-3.402334213E0,3.491587308E0
7.518807036E0,-1.048626155E-1,-8.202065229E-1,-3.338963509E0,3.439827353E0
7.523822817E0,4.275991023E-2,-7.197480202E-1,-3.175438881E0,3.256267450E0
7.528838703E0,6.103737652E-2,-6.279288530E-1,-3.012392044E0,3.077746909E0
7.533854588E0,-4.766967893E-2,-6.191215515E-1,-3.007719994E0,3.071150184E0
7.538870474E0,-5.584532022E-2,-6.381605864E-1,-3.108613968E0,3.173932645E0
7.543886255E0,-7.343904674E-2,-6.519397497E-1,-3.248088837E0,3.313683724E0
7.548902140E0,1.075910181E-1,-6.251819134E-1,-3.423831940E0,3.482104738E0
7.553918026E0,-2.861738205E-3,-5.079034567E-1,-3.442136765E0,3.479407941E0
7.558933807E0,-1.302845478E-1,-4.625817537E-1,-3.429894447E0,3.463398889E0
7.563949745E0,6.529980898E-2,-2.667702436E-1,-3.458866119E0,3.469752910E0
7.568965526E0,4.305762053E-2,-2.438539267E-1,-3.488412857E0,3.497190724E0
7.573981463E0,1.143415272E-1,-5.703437328E-2,-3.614247322E0,3.616505303E0
7.578997245E0,-1.560462713E-1,-1.441830397E-1,-3.671246529E0,3.677389055E0
7.584013182E0,-1.149794310E-1,-1.318931580E-1,-3.745543480E0,3.749628253E0
7.589028963E0,9.364113212E-2,-2.346024513E-1,-3.683939934E0,3.692589932E0
7.594044901E0,1.369478106E-1,-1.986849308E-1,-3.551165581E0,3.559354912E0
7.599060682E0,-1.893579960E-2,-9.364259243E-2,-3.442964554E0,3.444289828E0
7.604076620E0,6.682029366E-2,1.945414543E-1,-3.543477058E0,3.549442350E0
7.609092401E0,-4.802092910E-2,3.612451553E-1,-3.754451752E0,3.772096503E0
7.614108338E0,3.151059151E-2,4.162584543E-1,-4.003969193E0,4.025671784E0
7.619124120E0,3.537285328E-2,3.816429973E-1,-4.052785873E0,4.070869189E0
7.624140005E0,-9.898227453E-2,2.833739519E-1,-3.740764618E0,3.752788059E0
7.629155890E0,-1.784185618E-1,1.321962476E-1,-3.264367104E0,3.271911004E0
7.634171672E0,-6.924620271E-2,5.118775368E-2,-2.877217293E0,2.878505614E0
7.639187609E0,1.568511724E-1,1.069260240E-1,-2.792083740E0,2.798529449E0
7.644203390E0,1.457156539E-1,1.764780879E-1,-2.927408218E0,2.936340655E0
7.649219328E0,6.489476562E-2,2.826374173E-1,-3.271065712E0,3.283894964E0
7.654235109E0,-6.202459335E-4,5.398161411E-1,-3.492815971E0,3.534284264E0
7.659251047E0,-6.824353337E-2,6.179664135E-1,-3.609571457E0,3.662723818E0
7.664266828E0,7.705655694E-2,6.589956284E-1,-3.556903839E0,3.618256192E0
7.669282765E0,2.159252763E-2,6.229472160E-1,-3.287199974E0,3.345775417E0
7.674298547E0,-2.892380953E-2,5.440036654E-1,-3.025534630E0,3.074188734E0
7.679314484E0,1.112070680E-2,4.938232005E-1,-2.913050652E0,2.954631808E0
7.684330265E0,5.130898952E-2,5.313144922E-1,-2.949602127E0,2.997512370E0
7.689346203E0,9.158068895E-2,6.554042101E-1,-3.161338806E0,3.229861413E0
7.694361984E0,-2.803012729E-2,7.215782404E-1,-3.438038826E0,3.513057331E0
7.699377922E0,-2.771285176E-2,7.655605674E-1,-3.688753128E0,3.767459439E0
7.704393703E0,7.298997045E-2,9.612761736E-1,-3.786755562E0,3.907543615E0
7.709409640E0,4.257857800E-2,1.100778580E0,-3.732196808E0,3.891377575E0
7.714425422E0,1.475843787E-2,1.143264771E0,-3.706967354E0,3.879288480E0
7.719441307E0,-2.015134692E-2,1.232296228E0,-3.715786934E0,3.914847712E0
7.724457192E0,-2.138033509E-2,1.267467499E0,-3.641420364E0,3.855758453E0
7.729472974E0,1.361566782E-2,1.248879910E0,-3.653707504E0,3.861277631E0
7.734488911E0,2.241861820E-2,1.204954982E0,-3.683156013E0,3.875313835E0
7.739504692E0,2.666902542E-2,1.336276531E0,-3.650776863E0,3.887739434E0
7.744520630E0,6.822496653E-3,1.572854161E0,-3.645056725E0,3.969931395E0
7.749536411E0,-9.462833405E-4,1.634519577E0,-3.761522293E0,4.101305293E0
7.754552349E0,7.311752439E-2,1.679256916E0,-3.889956474E0,4.237571396E0
7.759568130E0,1.379096508E-2,1.664246321E0,-3.884456635E0,4.225980283E0
7.764584067E0,2.002626657E-3,1.642811060E0,-3.752432823E0,4.096289087E0
7.769599849E0,4.090914130E-2,1.703601837E0,-3.568129539E0,3.954172630E0
7.774615786E0,-9.135901928E-3,1.700812459E0,-3.448802948E0,3.845398323E0
7.779631567E0,1.252250373E-1,1.768179774E0,-3.451676369E0,3.880233341E0
7.784647453E0,7.295620441E-2,1.830944061E0,-3.507159233E0,3.956999450E0
7.789663338E0,4.474103451E-3,1.941393852E0,-3.584005356E0,4.076042750E0
7.794679120E0,-3.503912687E-2,1.997092485E0,-3.596144676E0,4.113619169E0
7.799695057E0,7.684129477E-2,1.950344920E0,-3.581876755E0,4.079165476E0
7.804710838E0,8.049094677E-2,1.947430849E0,-3.514995575E0,4.019223755E0
7.809726776E0,6.271621585E-2,2.014719963E0,-3.335764885E0,3.897480881E0
7.814742557E0,3.567060828E-2,2.030255318E0,-3.276248932E0,3.854480005E0
7.819758495E0,8.496010303E-2,2.137200117E0,-3.293194771E0,3.926827518E0
7.824774276E0,7.223853469E-2,2.299213409E0,-3.309890747E0,4.030753957E0
7.829790213E0,5.077737570E-2,2.332321405E0,-3.323932648E0,4.060890263E0
7.834805995E0,2.204111218E-2,2.275476217E0,-3.301961899E0,4.010140921E0
7.839821932E0,2.924686670E-2,2.277415276E0,-3.129297256E0,3.870397529E0
7.844837713E0,7.703191042E-2,2.386205196E0,-2.861176491E0,3.726424569E0
7.849853651E0,1.103617549E-1,2.412900686E0,-2.763139725E0,3.670042313E0
7.854869432E0,1.149216890E-1,2.496383667E0,-2.648477554E0,3.641369490E0
7.859885317E0,9.852969646E-2,2.746134758E0,-2.569705009E0,3.762226475E0
7.864901203E0,6.020069122E-4,2.932754517E0,-2.426439285E0,3.806396856E0
7.869916984E0,8.506968617E-2,3.057137489E0,-2.142374992E0,3.734045673E0
7.874932922E0,2.610996366E-2,3.055318356E0,-1.823019028E0,3.557955924E0
7.879948703E0,7.990348339E-2,3.195763111E0,-1.451784134E0,3.510977585E0
7.884964640E0,2.342846990E-2,3.225590706E0,-1.009795189E0,3.380040032E0
7.889980422E0,6.234043837E-2,3.297900200E0,-7.362604141E-1,3.379661441E0
7.894996359E0,1.681233048E-1,3.426656485E0,-5.567808151E-1,3.475664683E0
7.900012140E0,7.330551744E-2,3.456170559E0,-4.879398346E-1,3.491213817E0
7.905028078E0,-8.919835091E-3,3.345817089E0,-4.243764877E-1,3.372635017E0
7.910043859E0,-4.794687033E-2,3.292537689E0,-3.041105270E-1,3.306899840E0
7.915059745E0,7.567316294E-2,3.267846346E0,-6.991767883E-2,3.269470087E0
7.920075630E0,9.585177898E-2,3.221366405E0,1.178388596E-1,3.224945748E0
7.925091411E0,1.013761461E-1,3.116935730E0,1.684064865E-1,3.123127633E0
7.930107349E0,2.326413989E-2,3.028193951E0,5.577945709E-2,3.028796984E0
7.935123130E0,2.781659365E-3,2.954649925E0,-7.148933411E-2,2.955515969E0
7.940139067E0,3.279829025E-2,2.878940582E0,-2.658376694E-1,2.891374115E0
7.945154849E0,5.533963442E-3,2.726997852E0,-3.837375641E-1,2.753870445E0
7.950170786E0,4.051846266E-2,2.632758379E0,-4.587497711E-1,2.672734514E0
7.955186567E0,5.642414093E-3,2.557542562E0,-4.621601105E-1,2.598970520E0
7.960202505E0,3.334623575E-2,2.584684372E0,-4.728431702E-1,2.627791076E0
7.965218286E0,-3.246054053E-2,2.462892771E0,-5.840244293E-1,2.531398629E0
7.970234224E0,4.050159454E-2,2.428543568E0,-7.117176056E-1,2.531008927E0
7.975250005E0,1.084929705E-2,2.359513521E0,-8.008651733E-1,2.491747738E0
7.980265890E0,3.136104345E-2,2.377433300E0,-8.729143143E-1,2.532815037E0
7.985281776E0,4.223245382E-2,2.364465237E0,-9.492130280E-1,2.548231702E0
7.990297557E0,-1.612186432E-3,2.330301762E0,-9.890947342E-1,2.531524697E0
7.995313495E0,-1.672583818E-2,2.358531475E0,-9.590682983E-1,2.546126955E0
8.000329276E0,1.352992654E-2,2.346854210E0,-7.756986618E-1,2.471763774E0
8.005345213E0,5.102831125E-2,2.385905743E0,-6.877374649E-1,2.483572613E0
8.010360995E0,-7.532238960E-3,2.339419127E0,-6.233549118E-1,2.421055540E0
8.015376932E0,-8.433669806E-3,2.360397339E0,-5.513572693E-1,2.423951642E0
8.020392713E0,-2.818888426E-2,2.319918156E0,-4.789972305E-1,2.369019462E0
8.025408651E0,9.125918150E-3,2.297032356E0,-3.943462372E-1,2.330654389E0
8.030424432E0,-3.709018230E-3,2.241898537E0,-2.855672836E-1,2.260015814E0
8.035440317E0,-2.412745357E-2,2.178676128E0,-1.981983185E-1,2.187805837E0
8.040456203E0,2.006454766E-2,2.173789740E0,-1.798305511E-1,2.181307737E0
8.045471984E0,4.505366087E-3,2.162330151E0,-2.278757095E-1,2.174308929E0
8.050487922E0,-1.568110287E-2,2.137105465E0,-2.681045532E-1,2.153914046E0
8.055503703E0,-1.006439477E-1,2.060243368E0,-2.241363525E-1,2.074841932E0
8.060519640E0,-3.216432035E-2,2.013282776E0,-1.630678177E-1,2.020131974E0
8.065535422E0,-3.340156376E-2,1.951006889E0,-9.457969666E-2,1.953583596E0
8.070551359E0,6.106494367E-2,1.940163732E0,-9.988689423E-2,1.943692780E0
8.075567140E0,-1.668721437E-2,1.868731499E0,-9.535217285E-2,1.871237001E0
8.080583078E0,-2.051377296E-2,1.774878025E0,-1.670160294E-1,1.782836833E0
8.085598859E0,-3.145234287E-2,1.703668118E0,-2.141990662E-1,1.717368785E0
8.090614745E0,5.246296525E-3,1.760170937E0,-2.799339294E-1,1.782299709E0
8.095630630E0,3.235433996E-2,1.769652367E0,-3.283081055E-1,1.800139582E0
8.100646411E0,-2.896958590E-2,1.672421694E0,-3.976106644E-1,1.719281187E0
8.105662349E0,-1.841636002E-2,1.635853887E0,-4.973239899E-1,1.709879601E0
8.110678130E0,-4.350545257E-2,1.628510594E0,-5.627450943E-1,1.723549106E0
8.115694067E0,-8.734092116E-3,1.612373352E0,-5.940170288E-1,1.718336504E0
8.120709849E0,-1.016332209E-2,1.551701546E0,-6.055784225E-1,1.665714923E0
8.125725786E0,-2.072229981E-2,1.597361326E0,-4.970750809E-1,1.673044009E0
8.130741567E0,-2.912964672E-2,1.565713525E0,-4.075765610E-1,1.618155132E0
8.135757505E0,-2.816398442E-2,1.450053334E0,-3.013248444E-1,1.481298263E0
8.140773286E0,-7.041091472E-2,1.389194369E0,-2.261724472E-1,1.409245425E0
8.145789172E0,-1.408362389E-2,1.456829548E0,-1.915025711E-1,1.469429792E0
8.150805057E0,1.320409775E-2,1.471491933E0,-1.735172272E-1,1.481745958E0
8.155820838E0,-1.707225293E-2,1.371500492E0,-1.412649155E-1,1.378862153E0
8.160836776E0,-8.070846647E-2,1.347869992E0,-9.221363068E-2,1.353429247E0
8.165852557E0,-6.560683250E-4,1.379344344E0,-5.999088287E-2,1.380648455E0
8.170868495E0,4.784432054E-2,1.370268106E0,-6.851387024E-2,1.372813867E0
8.175884276E0,3.004118800E-3,1.318163514E0,-1.033306122E-1,1.322210759E0
8.180900161E0,-9.218250960E-2,1.339488745E0,-2.143545151E-1,1.359660094E0
8.185916047E0,3.545249254E-2,1.350488663E0,-3.727979660E-1,1.401447406E0
8.190931828E0,3.818656504E-2,1.351262927E0,-4.901733398E-1,1.437928932E0
8.195947765E0,-1.764684916E-3,1.406273603E0,-5.210514069E-1,1.499701014E0
