"Time (s)","Linear Acceleration x (m/s^2)","Linear Acceleration y (m/s^2)","Linear Acceleration z (m/s^2)","Absolute acceleration (m/s^2)"
1.061279320E-1,1.090431213E-2,1.890611649E-1,-2.425215542E-1,3.077007188E-1
1.112436090E-1,3.684616089E-2,2.907907963E-1,-2.098708600E-1,3.605034045E-1
1.163592860E-1,1.594514847E-1,2.167556286E-1,-1.252672821E-1,2.968158865E-1
1.214749630E-1,2.058706284E-1,1.234045029E-1,-4.806812108E-2,2.447895652E-1
1.265906400E-1,2.552423477E-1,-4.243850708E-5,2.508462965E-2,2.564720190E-1
1.317063170E-1,3.123445511E-1,-1.133515835E-1,5.806452036E-2,3.373117084E-1
1.368219940E-1,3.632602692E-1,-1.965777874E-1,5.953365564E-2,4.173069683E-1
1.419376710E-1,4.521150589E-1,-2.648885250E-1,5.889979005E-2,5.272979636E-1
1.470533490E-1,4.923906326E-1,-3.006875515E-1,1.051480472E-1,5.864449254E-1
1.521690260E-1,5.482635498E-1,-3.212215900E-1,1.252033561E-1,6.476512258E-1
1.572847030E-1,5.706539154E-1,-2.695400715E-1,9.693798423E-2,6.385097604E-1
1.624003800E-1,5.862054825E-1,-1.823787689E-1,1.672977209E-2,6.141488161E-1
1.675160570E-1,5.602493286E-1,-9.811067581E-2,-1.093485653E-1,5.791909216E-1
1.726317340E-1,4.893417358E-1,-3.036952019E-2,-1.968951225E-1,5.283420591E-1
1.777474110E-1,3.814992905E-1,7.911849022E-2,-2.377623469E-1,4.564344178E-1
1.828630880E-1,2.816581726E-1,1.501190662E-1,-2.404147685E-1,3.995826837E-1
1.879787650E-1,1.847076416E-1,2.232720852E-1,-1.872149408E-1,3.449880736E-1
1.930944420E-1,1.253767014E-1,2.569346428E-1,-1.308997124E-1,3.144351485E-1
1.982101190E-1,6.297111511E-2,2.639448643E-1,-7.870238274E-2,2.825355159E-1
2.033257960E-1,3.015708923E-2,2.404870987E-1,-1.432812214E-2,2.427937185E-1
2.084414740E-1,1.914119720E-2,1.663315296E-1,1.292324066E-2,1.679272858E-1
2.135571510E-1,1.539325714E-2,1.034471989E-1,3.415808082E-2,1.100229513E-1
2.186728280E-1,2.349567413E-2,2.604293823E-2,7.631540298E-3,3.589598504E-2
2.237885050E-1,6.422233582E-2,-1.886081696E-2,-3.515771776E-2,7.560624281E-2
2.289041820E-1,9.010982513E-2,-3.668880463E-2,-5.893097073E-2,1.137484430E-1
2.340198590E-1,5.938911438E-2,-6.325745583E-2,-5.396568775E-2,1.021805661E-1
2.391355360E-1,4.344177246E-2,-9.860396385E-2,-4.283078015E-3,1.078344752E-1
2.442512130E-1,7.937335968E-2,-1.192395687E-1,8.463993669E-2,1.663794574E-1
2.493668900E-1,1.028032303E-1,-1.607625484E-1,1.814506054E-1,2.633200018E-1
2.544825670E-1,1.702833176E-1,-1.711711884E-1,2.344495654E-1,3.365450678E-1
2.595982440E-1,2.364864349E-1,-1.931166649E-1,2.729279399E-1,4.095235531E-1
2.647139210E-1,3.273353577E-1,-1.863811016E-1,2.594302595E-1,4.573733824E-1
2.698295990E-1,4.143934250E-1,-1.886625290E-1,1.924822479E-1,4.943327587E-1
2.748677240E-1,5.024948120E-1,-1.575105190E-1,9.659506381E-2,5.353888363E-1
2.798838170E-1,5.399894714E-1,-1.358528137E-1,5.285829306E-3,5.568415899E-1
2.848999630E-1,5.443115234E-1,-7.876992226E-2,-8.857250959E-2,5.570680611E-1
2.899160570E-1,5.018625259E-1,-1.532816887E-2,-1.569807678E-1,5.260645485E-1
2.949322030E-1,3.827104568E-1,2.570486069E-2,-2.026969790E-1,4.338364887E-1
2.999482960E-1,2.680339813E-1,9.164667130E-2,-2.097640038E-1,3.524801622E-1
3.049643900E-1,1.741609573E-1,1.609630585E-1,-2.214669287E-1,3.244822734E-1
3.099805360E-1,8.885002136E-2,1.746287346E-1,-1.930811703E-1,2.750815508E-1
3.149966300E-1,9.443283081E-3,2.086012363E-1,-1.629998833E-1,2.649011388E-1
3.200127760E-1,-6.659889221E-2,1.965117455E-1,-1.242011040E-1,2.418226474E-1
3.250288690E-1,-8.519649506E-2,1.273176670E-1,-3.236890212E-2,1.565757865E-1
3.300449630E-1,-6.129741669E-2,8.230376244E-2,7.652744651E-2,1.280145799E-1
3.350611090E-1,3.039836884E-2,2.344512939E-2,1.220206767E-1,1.279170844E-1
3.400772030E-1,1.230716705E-1,-4.149150848E-2,1.381846964E-1,1.896396364E-1
3.450933490E-1,2.144250870E-1,-1.029286385E-1,1.160312667E-1,2.646425465E-1
3.501094420E-1,2.856855392E-1,-1.537845135E-1,3.500591218E-2,3.263300749E-1
3.551255360E-1,3.608665466E-1,-1.514925957E-1,-2.137953043E-2,3.919588695E-1
3.601416820E-1,3.880405426E-1,-1.510863304E-1,-5.795405805E-2,4.204297977E-1
3.651577760E-1,3.843240738E-1,-1.292235851E-1,-7.463605702E-2,4.122793588E-1
3.701739210E-1,3.524799347E-1,-8.864164352E-2,-7.168632001E-2,3.704569797E-1
3.751900150E-1,2.999019623E-1,-7.933163643E-2,-4.019580781E-2,3.128104833E-1
3.802061090E-1,2.480459213E-1,-1.602363586E-2,-3.818564117E-3,2.485922714E-1
3.852222550E-1,2.275810242E-1,1.319313049E-2,1.665927470E-3,2.279692009E-1
3.902383490E-1,2.404336929E-1,5.366444588E-2,-5.232796073E-3,2.464053887E-1
3.952544420E-1,2.153053284E-1,7.929825783E-2,-4.778592288E-2,2.343674306E-1
4.002705880E-1,2.117643356E-1,9.268808365E-2,-7.127242535E-2,2.418986840E-1
4.052866820E-1,1.798400879E-1,1.032776833E-1,-8.049953729E-2,2.224610361E-1
4.103028280E-1,1.293954849E-1,6.399917603E-2,-7.333288342E-2,1.619160210E-1
4.153189210E-1,9.133911133E-2,2.736043930E-2,-1.681537554E-2,9.682036847E-2
4.203350150E-1,3.002738953E-2,5.111217499E-3,1.059352607E-2,3.224889859E-2
4.253511610E-1,1.445007324E-2,-4.273915291E-2,1.853964105E-2,4.877661426E-2
4.303672550E-1,1.095962524E-2,-5.907249451E-2,-9.088043123E-3,6.076401501E-2
4.353834010E-1,5.226135254E-3,-4.660511017E-2,-7.190476358E-2,8.584662957E-2
4.403994940E-1,-9.786605835E-3,-1.741623878E-2,-1.265549064E-1,1.281220018E-1
4.454156400E-1,-5.059242249E-2,5.656099319E-2,-1.447069943E-1,1.633978377E-1
4.504317340E-1,-6.962394714E-2,1.013269424E-1,-1.028266996E-1,1.602746812E-1
4.554478280E-1,-1.145429611E-1,1.170270443E-1,-4.461264610E-2,1.697224417E-1
4.604639740E-1,-1.520261765E-1,1.250400543E-1,2.749424055E-2,1.987533818E-1
4.654800670E-1,-1.608266830E-1,1.160664558E-1,1.104428768E-1,2.270116147E-1
4.704962130E-1,-1.650161743E-1,5.220842361E-2,1.872313023E-1,2.549737591E-1
4.755123070E-1,-6.979751587E-2,-8.781433105E-3,2.388716936E-1,2.490150453E-1
4.805284530E-1,3.863906860E-2,-4.058551788E-2,2.374985516E-1,2.440199252E-1
4.855445460E-1,1.768579483E-1,-9.771537781E-2,1.978817135E-1,2.828147830E-1
4.905606400E-1,2.712182999E-1,-1.323401928E-1,1.539102197E-1,3.387648868E-1
4.955767860E-1,3.411922455E-1,-1.635427475E-1,8.694077283E-2,3.882229728E-1
5.005928800E-1,3.941135406E-1,-1.606757641E-1,2.348211035E-2,4.262553150E-1
5.056090260E-1,3.827257156E-1,-1.597704887E-1,-4.570972919E-2,4.172468835E-1
5.106251190E-1,3.193664551E-1,-1.185724735E-1,-5.895362794E-2,3.457309566E-1
5.156412130E-1,2.661457062E-1,-9.204697609E-2,-6.442801654E-2,2.888895153E-1
5.206573590E-1,2.134160995E-1,-5.648016930E-2,-5.313963443E-2,2.270688482E-1
5.256734530E-1,1.776828766E-1,-1.926326752E-2,-2.537843771E-2,1.805168779E-1
5.306895990E-1,1.469688416E-1,2.447772026E-2,8.730826899E-3,1.492488744E-1
5.357056920E-1,1.378698349E-1,3.689169884E-2,6.470426917E-3,1.428669144E-1
5.407218380E-1,1.216945648E-1,5.376482010E-2,3.814719617E-3,1.330968635E-1
5.457379320E-1,1.269626617E-1,4.185700417E-2,1.504714228E-2,1.345285946E-1
5.507540260E-1,1.131572723E-1,-8.051633835E-3,4.272478819E-2,1.212221292E-1
5.557701710E-1,1.303119659E-1,-3.855133057E-2,7.731489092E-2,1.563489876E-1
5.607862650E-1,1.805114746E-1,-6.645822525E-2,3.350392357E-2,1.952526596E-1
5.658024110E-1,2.397766113E-1,-9.168696404E-2,1.647626236E-2,2.572368363E-1
5.708185050E-1,2.794876099E-1,-1.002559662E-1,-2.592656016E-2,2.980549771E-1
5.758346510E-1,3.187828064E-1,-1.089804173E-1,-3.868289664E-2,3.391099755E-1
5.808507440E-1,3.695344925E-1,-1.249783039E-1,-4.846689105E-2,3.930958625E-1
5.858668380E-1,4.126768112E-1,-6.984782219E-2,-8.411739022E-2,4.269152189E-1
5.908829840E-1,4.506206512E-1,-3.209471703E-2,-1.167745441E-1,4.666104760E-1
5.958990780E-1,4.003038406E-1,1.205921173E-2,-1.183465421E-1,4.176056674E-1
6.009152240E-1,3.502025604E-1,7.719278336E-3,-7.697495818E-2,3.586454583E-1
6.059313170E-1,3.287200928E-1,3.580880165E-2,-4.340913519E-2,3.335019081E-1
6.109474630E-1,3.333425522E-1,1.087784767E-2,-3.222249448E-3,3.335355567E-1
6.159635570E-1,3.853149414E-1,-1.415085793E-2,2.592653036E-3,3.855834186E-1
6.209796510E-1,4.225969315E-1,-5.086660385E-2,-6.129609793E-2,4.300381256E-1
6.259957960E-1,4.619960785E-1,-3.015255928E-2,-1.446637958E-1,4.850537776E-1
6.310118900E-1,4.655590057E-1,-3.069519997E-2,-2.258044034E-1,5.183387037E-1
6.360280360E-1,3.977508545E-1,-6.240081787E-2,-2.448530346E-1,4.712245886E-1
6.410441300E-1,2.092323303E-1,-9.196710587E-2,-1.854063720E-1,2.942985548E-1
6.460602760E-1,8.608818054E-2,-1.196911335E-1,-1.361885667E-1,2.007099100E-1
6.510763690E-1,1.363372803E-2,-1.405599117E-1,-6.379458308E-2,1.549603696E-1
6.560925150E-1,1.983928680E-2,-1.620042324E-1,-1.812723279E-2,1.642180416E-1
6.611086090E-1,3.053379059E-2,-2.170324326E-1,4.359076545E-2,2.234626232E-1
6.661247550E-1,7.427883148E-2,-2.314867973E-1,6.893973798E-3,2.432098045E-1
6.711408490E-1,1.794881821E-1,-1.861836910E-1,-1.031833291E-1,2.784370193E-1
6.761569420E-1,2.578697205E-1,-1.146910191E-1,-2.174129188E-1,3.562572102E-1
6.811730880E-1,2.858181000E-1,-7.680702209E-2,-3.257309794E-1,4.401045056E-1
6.861891820E-1,2.280454636E-1,-4.401111603E-2,-3.449553847E-1,4.158556591E-1
6.912053280E-1,2.182817459E-1,-3.034019470E-2,-3.257469833E-1,3.932919337E-1
6.962214210E-1,4.033164978E-1,-1.904129982E-2,-2.686272562E-1,4.849612059E-1
7.012375670E-1,3.087749481E-1,-6.782221794E-2,-1.237628832E-1,3.394982667E-1
7.062536610E-1,7.926559448E-2,-1.647531986E-1,4.375870153E-2,1.879932841E-1
7.112698070E-1,-6.803321838E-2,-2.168135643E-1,1.411414146E-1,2.675024101E-1
7.162859010E-1,-7.906723022E-2,-2.501618862E-1,1.259381920E-1,2.910206598E-1
7.213019940E-1,-2.834796906E-2,-2.453784943E-1,5.851061642E-2,2.538458293E-1
7.263181400E-1,6.003379822E-2,-2.403523922E-1,-2.986775339E-2,2.495303830E-1
7.313342340E-1,1.455459595E-1,-2.465968132E-1,-1.294801086E-1,3.142589905E-1
7.363503800E-1,2.521333694E-1,-2.160949707E-1,-2.454520613E-1,4.129346035E-1
7.413664740E-1,3.510894775E-1,-1.730067730E-1,-4.344004095E-1,5.847211989E-1
7.463826190E-1,2.952489853E-1,-1.388893127E-1,-4.962069988E-1,5.938716951E-1
7.513987130E-1,1.877059937E-1,-1.025130749E-1,-4.797644615E-1,5.252774592E-1
7.564148590E-1,-1.162147522E-2,-7.615542412E-2,-3.596312404E-1,3.677897991E-1
7.614309530E-1,-2.619457245E-1,-8.667540550E-2,-1.909501255E-1,3.355445409E-1
7.664470990E-1,-4.987764359E-1,-1.196033955E-1,-1.653899252E-2,5.131826609E-1
7.714631920E-1,-6.677722931E-1,-1.157586575E-1,1.541917920E-1,6.950503657E-1
7.764792860E-1,-7.693576813E-1,-1.178236008E-1,2.713954449E-1,8.242870435E-1
7.814954320E-1,-7.731132507E-1,-1.183266640E-1,3.572282493E-1,8.598356354E-1
7.865115260E-1,-7.413034439E-1,-1.047194004E-1,3.977687955E-1,8.477717638E-1
7.915276710E-1,-6.266269684E-1,-1.148304939E-1,3.977996707E-1,7.510605687E-1
7.965437650E-1,-4.771089554E-1,-1.267352104E-1,3.265110254E-1,5.918650341E-1
8.015599110E-1,-3.144054413E-1,-1.356692314E-1,2.342081070E-1,4.148618556E-1
8.065760050E-1,-2.097892761E-1,-1.510150433E-1,1.473339498E-1,2.975304630E-1
8.115921510E-1,-1.581640244E-1,-1.754233837E-1,7.280792296E-2,2.471643498E-1
8.166082440E-1,-1.163196564E-1,-1.849942207E-1,1.989476010E-2,2.194286345E-1
8.216243900E-1,-9.610939026E-2,-1.633968353E-1,-4.444444552E-2,1.947070862E-1
8.266404840E-1,-1.305704117E-1,-1.274552345E-1,-8.405876160E-2,2.008963529E-1
8.316566300E-1,-1.861371994E-1,-9.183716774E-2,-6.782405078E-2,2.183603083E-1
8.366727240E-1,-2.460145950E-1,-7.315850258E-2,6.443552673E-3,2.567428029E-1
8.416888170E-1,-2.841005325E-1,-6.901550293E-2,7.889314741E-2,3.028207076E-1
8.467049630E-1,-2.887372971E-1,-6.275010109E-2,1.491973847E-1,3.310085520E-1
8.517210570E-1,-2.434110641E-1,-6.346249580E-2,2.197398990E-1,3.340090684E-1
8.567372030E-1,-1.723127365E-1,-8.542203903E-2,2.377014905E-1,3.057623301E-1
8.617532960E-1,-1.183195114E-1,-1.164157391E-1,2.435701787E-1,2.947516973E-1
8.667694420E-1,-3.617763519E-2,-1.468722820E-1,1.727629602E-1,2.296243213E-1
8.717855360E-1,6.203079224E-2,-1.814877987E-1,9.248541296E-2,2.129300164E-1
8.768016820E-1,9.310531616E-2,-1.845605373E-1,1.960892975E-2,2.076432083E-1
8.818177760E-1,1.502161026E-1,-1.657953262E-1,-7.301690057E-3,2.238443262E-1
8.868339210E-1,1.642484665E-1,-1.563475132E-1,-2.297852188E-3,2.267760652E-1
8.918500150E-1,1.854534149E-1,-1.299419403E-1,2.537847310E-2,2.278638713E-1
8.968661610E-1,2.042379379E-1,-1.247894764E-1,3.000340983E-2,2.412172326E-1
9.018822550E-1,2.373743057E-1,-5.494332314E-2,-2.878643200E-2,2.453446320E-1
9.068984010E-1,2.609157562E-1,4.325103760E-2,-9.857521951E-2,2.822494606E-1
9.119144940E-1,2.251415253E-1,1.340539455E-1,-1.350441873E-1,2.947814432E-1
9.169305880E-1,2.541818619E-1,2.393028736E-1,-1.032816991E-1,3.640623485E-1
9.219467340E-1,3.211412430E-1,2.870795727E-1,-4.483894259E-2,4.330784106E-1
9.269628280E-1,1.000328064E-1,2.436957359E-1,7.623280585E-2,2.742364213E-1
9.319789740E-1,-2.170906067E-1,1.947555542E-1,2.857732177E-1,4.083189799E-1
9.369950670E-1,-4.657764435E-1,1.613171101E-1,4.602045417E-1,6.743583065E-1
9.420112130E-1,-5.777883530E-1,1.051805019E-1,5.574354529E-1,8.097139019E-1
9.470273070E-1,-4.826192856E-1,4.648542404E-2,5.972983241E-1,7.693162922E-1
9.520434530E-1,-1.983633041E-1,4.818439484E-3,5.851268768E-1,6.178549019E-1
9.570595460E-1,1.313505173E-1,-1.670980453E-2,5.471670628E-1,5.629600079E-1
9.620756920E-1,3.851337433E-1,-4.659366608E-2,5.004734397E-1,6.332239997E-1
9.670917860E-1,5.305233002E-1,-8.683538437E-2,4.354463518E-1,6.918156411E-1
9.721079320E-1,6.395101547E-1,-8.304548264E-2,3.809418976E-1,7.489903334E-1
9.771240260E-1,7.124137878E-1,-1.234090328E-1,3.155539632E-1,7.888837038E-1
9.821401710E-1,7.754526138E-1,-7.741832733E-2,2.441795021E-1,8.166663841E-1
9.871562650E-1,7.574100494E-1,-7.178640366E-2,1.739301234E-1,7.804325458E-1
9.921724110E-1,7.133865356E-1,-2.346467972E-2,1.101951301E-1,7.222284314E-1
9.971885050E-1,6.530056000E-1,4.800558090E-2,8.146601170E-2,6.598163081E-1
1.002204651E0,5.976037979E-1,1.064658165E-1,5.897302553E-2,6.098713693E-1
1.007220744E0,5.518999100E-1,1.401810646E-1,7.801656425E-2,5.747441394E-1
1.012236890E0,5.706434250E-1,1.712126732E-1,6.644572318E-2,5.994687082E-1
1.017252984E0,6.983842850E-1,1.924047470E-1,7.159470767E-2,7.279326881E-1
1.022269130E0,6.539726257E-1,1.989049911E-1,7.225108147E-2,6.873598835E-1
1.027285224E0,6.050395966E-1,1.575732231E-1,9.093614668E-2,6.318002982E-1
1.032301317E0,4.897956848E-1,1.279449463E-1,6.594363600E-2,5.105078699E-1
1.037317463E0,2.324962616E-1,1.044540405E-1,1.299085170E-1,2.860793265E-1
1.042333609E0,-1.538867950E-1,1.249012947E-1,2.191471905E-1,2.954775291E-1
1.047349703E0,-2.311620712E-1,7.792043686E-2,1.219779700E-1,2.727381947E-1
1.052365796E0,-1.987495422E-1,5.234050751E-2,-2.047249675E-2,2.065430521E-1
1.057381942E0,-2.093496323E-1,1.272010803E-2,-1.008964777E-1,2.327427096E-1
1.062398036E0,-1.675481796E-1,1.396989822E-2,-1.362441629E-1,2.164024549E-1
1.067414182E0,-1.568040848E-1,8.452415466E-3,-1.308739036E-1,2.044185485E-1
1.072430276E0,-1.958427429E-1,3.183507919E-2,-2.616028488E-2,2.001304892E-1
1.077446421E0,-3.316268921E-1,1.268167496E-1,1.388327181E-1,3.812261890E-1
1.082462515E0,-5.303535461E-1,2.210831642E-1,3.046225309E-1,6.503441672E-1
1.087478661E0,-7.750291824E-1,2.146177292E-1,3.430677056E-1,8.743148483E-1
1.092494755E0,-8.731136322E-1,1.411705017E-1,1.695662141E-1,9.005605067E-1
1.097510901E0,-7.522716522E-1,3.684616089E-2,-8.085350692E-2,7.575008699E-1
1.102526994E0,-4.546375275E-1,-4.813623428E-2,-2.462380528E-1,5.192740674E-1
1.107543140E0,-1.265239716E-1,-1.068096161E-1,-2.554392219E-1,3.044105871E-1
1.112559234E0,1.036758423E-1,-1.985850334E-1,-4.038085043E-2,2.276297627E-1
1.117575380E0,2.701578140E-1,-2.326478958E-1,2.836076915E-1,4.555695453E-1
1.122591474E0,3.098897934E-1,-1.585011482E-1,6.613089442E-1,7.473177489E-1
1.127607619E0,2.864284515E-1,1.022863388E-2,9.583979845E-1,1.000336233E0
1.132623713E0,7.506942749E-2,2.596826553E-1,1.082511187E0,1.115751303E0
1.137639859E0,-4.295568466E-1,4.939756393E-1,9.537689090E-1,1.156808605E0
1.142655953E0,-1.118549347E0,6.554880142E-1,6.148807406E-1,1.434885188E0
1.147672099E0,-1.810641289E0,7.339448929E-1,7.316730917E-2,1.955108805E0
1.152688192E0,-2.216828346E0,7.833256721E-1,-4.770016074E-1,2.399053471E0
1.157704338E0,-2.209467888E0,7.956590652E-1,-9.118012190E-1,2.519167156E0
1.162720432E0,-1.811248779E0,8.229727745E-1,-1.042826653E0,2.246195396E0
1.167736578E0,-1.174788475E0,8.808178902E-1,-8.628155589E-1,1.703061598E0
1.172752671E0,-4.770011902E-1,8.854565620E-1,-4.198000133E-1,1.089860317E0
1.177768817E0,1.249742508E-1,8.307204247E-1,1.191048324E-1,8.484697687E-1
1.182784911E0,5.199022293E-1,7.175459862E-1,6.242132187E-1,1.083887777E0
1.187801057E0,6.468763351E-1,5.298438072E-1,9.742683768E-1,1.283893424E0
1.192817151E0,6.024761200E-1,3.014616966E-1,1.036607981E0,1.236289908E0
1.197833296E0,3.586082458E-1,3.701162338E-2,8.472430706E-1,9.207554262E-1
1.202849390E0,8.523654938E-2,-1.944060326E-1,4.917702079E-1,5.356275872E-1
1.207865536E0,-1.295766830E-1,-3.623986244E-1,1.697846800E-1,4.206539163E-1
1.212881630E0,-2.885398865E-1,-4.267842770E-1,-2.027609944E-2,5.155688173E-1
1.217897776E0,-3.133058548E-1,-4.406104088E-1,-1.216360629E-1,5.541601057E-1
1.222913869E0,-2.114791870E-1,-3.919179440E-1,-1.249246895E-1,4.625249176E-1
1.227930015E0,1.161289215E-2,-2.500762939E-1,-1.192635596E-1,2.773027384E-1
1.232946109E0,2.457332611E-1,-1.253447533E-1,-1.436871290E-1,3.110339754E-1
1.237962255E0,4.573554993E-1,-1.079940796E-2,-1.942956150E-1,4.970326608E-1
1.242978349E0,6.273212433E-1,7.641839981E-2,-2.746172547E-1,6.890474227E-1
1.247994494E0,7.103605270E-1,9.312486649E-2,-3.663029075E-1,8.046503210E-1
1.253010588E0,7.806367874E-1,1.061024666E-1,-4.099472165E-1,8.880924769E-1
1.258026734E0,8.524589539E-1,9.854745865E-2,-4.177927375E-1,9.544362949E-1
1.263042828E0,8.926277161E-1,8.764934540E-2,-3.800805211E-1,9.741292777E-1
1.268058974E0,8.702201843E-1,6.619215012E-2,-3.395065069E-1,9.364450001E-1
1.273075067E0,8.284959793E-1,1.059246063E-2,-2.885607481E-1,8.773739757E-1
1.278091213E0,7.532091141E-1,-1.459789276E-2,-2.195731401E-1,7.846970319E-1
1.283107307E0,6.469783783E-1,-5.212688446E-2,-1.245489717E-1,6.609165457E-1
1.288123453E0,5.575618744E-1,-6.860733032E-2,-5.277693272E-4,5.617672900E-1
1.293139546E0,4.801473618E-1,-7.122230530E-2,1.452257931E-1,5.066602775E-1
1.298155692E0,3.933010101E-1,-7.415294647E-2,2.985464334E-1,4.993138462E-1
1.303171786E0,3.661165237E-1,-4.902315140E-2,4.542052448E-1,5.854459691E-1
1.308187932E0,3.650608063E-1,-7.695674896E-3,5.715322495E-1,6.782165789E-1
1.313204026E0,3.972501755E-1,7.135772705E-2,6.530674100E-1,7.677217394E-1
1.318220171E0,4.409694672E-1,1.209716797E-1,6.894392967E-1,8.272936372E-1
1.323236265E0,4.198570251E-1,1.603446007E-1,7.023664117E-1,8.338518386E-1
1.328252411E0,4.081554413E-1,1.705508232E-1,7.132135034E-1,8.392567837E-1
1.333268505E0,3.199071884E-1,1.516051292E-1,7.390062809E-1,8.194235825E-1
1.338284651E0,2.532892227E-1,1.229019165E-1,7.819914222E-1,8.311262815E-1
1.343300744E0,2.082777023E-1,6.552505493E-2,8.683663607E-1,8.953955944E-1
1.348316890E0,1.657562256E-1,-2.744197845E-2,9.649698138E-1,9.794870750E-1
1.353333036E0,1.832742691E-1,-1.194605827E-1,9.953762293E-1,1.019134008E0
1.358349130E0,2.249279022E-1,-2.270326614E-1,9.599018097E-1,1.011705429E0
1.363365224E0,2.861013412E-1,-3.138041496E-1,9.115620255E-1,1.005620380E0
1.368381369E0,3.525457382E-1,-3.747935295E-1,7.815407515E-1,9.357161073E-1
1.373397463E0,4.123392105E-1,-4.147567749E-1,6.303164363E-1,8.598520900E-1
1.378413609E0,4.535417557E-1,-4.457671642E-1,4.938064218E-1,8.051417708E-1
1.383429755E0,5.000905991E-1,-4.272010326E-1,2.841888666E-1,7.164877120E-1
1.388445849E0,5.375871658E-1,-3.975214958E-1,1.136975586E-1,6.781964578E-1
1.393461994E0,5.874528885E-1,-3.497586250E-1,-4.664376378E-2,6.852792370E-1
1.398478088E0,5.873413086E-1,-2.415513992E-1,-2.039417028E-1,6.670150743E-1
1.403494234E0,6.136293411E-1,-1.473197937E-1,-3.249750137E-1,7.098259290E-1
1.408510328E0,6.087932587E-1,-2.446126938E-2,-4.414929152E-1,7.524251322E-1
1.413526474E0,6.252288818E-1,9.556055069E-2,-5.463111997E-1,8.357624665E-1
1.418542567E0,6.102609634E-1,2.172718048E-1,-6.517617702E-1,9.189226767E-1
1.423558713E0,5.972490311E-1,3.332824707E-1,-7.575662732E-1,1.020632289E0
1.428574807E0,5.813570023E-1,4.148173332E-1,-8.547422886E-1,1.113837405E0
1.433590953E0,5.506677628E-1,4.500751495E-1,-9.172775745E-1,1.160689784E0
1.438607046E0,5.314521790E-1,4.796972275E-1,-9.742136002E-1,1.208984279E0
1.443623192E0,4.854955673E-1,5.179519653E-1,-1.009297132E0,1.233961460E0
1.448639286E0,4.081640244E-1,5.267944336E-1,-9.984416962E-1,1.200414956E0
1.453655432E0,2.707099915E-1,5.226631165E-1,-8.626637459E-1,1.044341597E0
1.458671526E0,1.213378906E-1,4.868845940E-1,-7.179860473E-1,8.759471763E-1
1.463687671E0,-1.117515564E-2,4.506430626E-1,-6.939772367E-1,8.275315457E-1
1.468703817E0,-1.720886230E-1,4.188752174E-1,-5.448443890E-1,7.084676070E-1
1.473719911E0,-3.709297180E-1,3.745942116E-1,-3.810622692E-1,6.504753124E-1
1.478736005E0,-5.957059860E-1,2.936778069E-1,-1.865298748E-1,6.898591669E-1
1.483752151E0,-8.223495483E-1,2.169585228E-1,-6.894433498E-2,8.532778572E-1
1.488768296E0,-9.934854507E-1,8.706998825E-2,1.627075672E-2,9.974263187E-1
1.493784390E0,-1.092486382E0,-3.376007080E-4,4.483008385E-2,1.093405846E0
1.498800536E0,-1.124300957E0,-1.049652100E-1,7.182931900E-2,1.131472398E0
1.503816630E0,-1.124742508E0,-2.168760300E-1,8.762335777E-2,1.148807545E0
1.508832776E0,-1.070108414E0,-2.883324623E-1,9.992897511E-2,1.112768361E0
1.513848869E0,-1.010680199E0,-3.645849228E-1,1.357947588E-1,1.082975921E0
1.518865015E0,-9.487380981E-1,-3.975875378E-1,1.453312635E-1,1.038894126E0
1.523881109E0,-8.987817764E-1,-4.233684540E-1,1.582392454E-1,1.006026435E0
1.528897255E0,-8.943071365E-1,-3.966901302E-1,1.656472683E-1,9.922637408E-1
1.533913349E0,-8.994293213E-1,-3.965225220E-1,1.368089914E-1,9.924313148E-1
1.538929494E0,-8.544940948E-1,-3.559174538E-1,8.177828789E-2,9.292605019E-1
1.543945588E0,-8.098602295E-1,-2.800145149E-1,5.290913582E-2,8.585342722E-1
1.548961734E0,-7.369127274E-1,-1.976394653E-1,-2.637839317E-2,7.634117799E-1
1.553977828E0,-6.379585266E-1,-1.109972000E-1,-8.245539665E-2,6.527712865E-1
1.558993974E0,-5.347204208E-1,-2.047681808E-2,-1.251181364E-1,5.495450633E-1
1.564010067E0,-4.319257736E-1,5.019140244E-2,-1.686347723E-1,4.663868965E-1
1.569026213E0,-3.105344772E-1,8.428049088E-2,-1.842992306E-1,3.708113659E-1
1.574042359E0,-1.967267990E-1,1.274938583E-1,-2.080907822E-1,3.134611475E-1
1.579058453E0,-5.237770081E-2,1.630473137E-1,-2.371287346E-1,2.925027980E-1
1.584074599E0,6.739711761E-2,1.860733032E-1,-2.375320196E-1,3.091716448E-1
1.589090692E0,1.866455078E-1,1.777725220E-1,-2.378287315E-1,3.507165817E-1
1.594106838E0,3.219537735E-1,1.619625092E-1,-2.066607475E-1,4.154452445E-1
1.599122932E0,4.447650909E-1,1.222319603E-1,-1.918178797E-1,4.995505352E-1
1.604139078E0,5.765428543E-1,1.112322807E-1,-1.758345366E-1,6.129372459E-1
1.609155171E0,6.720027924E-1,8.365345001E-2,-1.588875055E-1,6.955795368E-1
1.614171317E0,7.789907455E-1,5.393457413E-2,-1.502588987E-1,7.951812728E-1
1.619187411E0,8.522157669E-1,1.503992081E-2,-1.620551348E-1,8.676173000E-1
1.624203557E0,9.084501266E-1,1.243591309E-2,-1.816440821E-1,9.265154381E-1
1.629219703E0,9.358310699E-1,-2.814197540E-2,-1.978119612E-1,9.569228465E-1
1.634235796E0,9.320731163E-1,-3.958368301E-2,-2.458428144E-1,9.647620699E-1
1.639251942E0,9.402637482E-1,-4.355907440E-2,-2.761292458E-1,9.809386675E-1
1.644268036E0,8.959751129E-1,-8.531808853E-2,-3.125034571E-1,9.527376291E-1
1.649284182E0,8.232350349E-1,-5.499935150E-2,-3.431900740E-1,8.935996186E-1
1.654300276E0,7.077579498E-1,-6.285810471E-2,-3.568166494E-1,7.951041304E-1
1.659316421E0,5.377464294E-1,-6.340885162E-2,-3.558237553E-1,6.479216385E-1
1.664332515E0,3.657293320E-1,-9.041833878E-2,-3.619370461E-1,5.224287947E-1
1.669348661E0,1.821384430E-1,-1.223683357E-1,-3.369486332E-1,4.020980023E-1
1.674364755E0,3.462314606E-2,-1.452322006E-1,-2.908070087E-1,3.268942806E-1
1.679380901E0,-1.008625031E-1,-1.877818108E-1,-2.497372627E-1,3.283351236E-1
1.684396994E0,-2.100610733E-1,-2.333011627E-1,-1.875263453E-1,3.656791178E-1
1.689413140E0,-2.523269653E-1,-2.505736351E-1,-1.188821793E-1,3.749520190E-1
1.694429286E0,-2.947473526E-1,-2.683215141E-1,-4.110670090E-2,4.007021309E-1
1.699445380E0,-3.109159470E-1,-2.935552597E-1,3.341090679E-2,4.289052404E-1
1.704461526E0,-3.605155945E-1,-3.237977028E-1,1.092314720E-1,4.967373156E-1
1.709477619E0,-4.172582626E-1,-3.686461449E-1,1.722513437E-1,5.828164062E-1
1.714493765E0,-4.643201828E-1,-3.994197845E-1,2.171082497E-1,6.498195046E-1
1.719509859E0,-5.135078430E-1,-3.968377113E-1,2.412680387E-1,6.923732667E-1
1.724526005E0,-5.291709900E-1,-4.088559151E-1,2.263021469E-1,7.059729157E-1
1.729542099E0,-5.684452057E-1,-3.850255013E-1,2.170677185E-1,7.200645686E-1
1.734558244E0,-6.123266220E-1,-3.733019829E-1,1.926797628E-1,7.425791227E-1
1.739574390E0,-6.345338821E-1,-3.329215050E-1,1.560388803E-1,7.333608309E-1
1.744590484E0,-6.280021667E-1,-2.876639366E-1,1.151313782E-1,7.002802982E-1
1.749606630E0,-6.094751358E-1,-2.565450668E-1,6.047105789E-2,6.640271541E-1
1.754622724E0,-6.005563736E-1,-2.179927826E-1,-2.437472343E-3,6.389012071E-1
1.759638869E0,-5.916681290E-1,-1.887249947E-1,-4.011666775E-2,6.223324236E-1
1.764654963E0,-5.971136093E-1,-1.543936729E-1,-8.857750893E-2,6.230794843E-1
1.769671109E0,-6.073961258E-1,-1.678185463E-1,-1.386582851E-1,6.452280513E-1
1.774687203E0,-6.010046005E-1,-1.693491936E-1,-1.838462353E-1,6.509109904E-1
1.779703349E0,-5.876455307E-1,-2.022871971E-1,-2.269359827E-1,6.616247578E-1
1.784719442E0,-5.434694290E-1,-2.570405006E-1,-2.823703289E-1,6.642001520E-1
1.789735588E0,-4.781007767E-1,-2.786765099E-1,-3.216829300E-1,6.400944128E-1
1.794751734E0,-4.249839783E-1,-3.269300461E-1,-3.450022936E-1,6.375901657E-1
1.799767828E0,-3.220424652E-1,-3.467946053E-1,-3.354187012E-1,5.800720237E-1
1.804783974E0,-2.242708206E-1,-3.763585091E-1,-3.189344406E-1,5.419061780E-1
1.809800067E0,-1.316404343E-1,-4.083371162E-1,-3.025033474E-1,5.249539786E-1
1.814816213E0,-5.604362488E-2,-4.020476341E-1,-2.883657217E-1,4.979337079E-1
1.819832307E0,4.940986633E-3,-3.958120346E-1,-2.549998760E-1,4.708678337E-1
1.824848453E0,2.036571503E-2,-3.870754242E-1,-2.117067575E-1,4.416581229E-1
1.829864546E0,4.774951935E-2,-3.709707260E-1,-1.563472748E-1,4.053933479E-1
1.834880692E0,3.207206726E-2,-3.833942413E-1,-1.388663054E-1,4.090276428E-1
1.839896838E0,9.147644043E-3,-3.814811707E-1,-1.256875992E-1,4.017573093E-1
1.844912932E0,-1.835823059E-3,-3.580050468E-1,-1.479008198E-1,3.873572464E-1
1.849929078E0,6.116867065E-3,-3.394165039E-1,-1.597015858E-1,3.751607331E-1
1.854945171E0,2.810668945E-2,-3.118953705E-1,-1.793594360E-1,3.608857373E-1
1.859961317E0,6.885623932E-2,-2.679224014E-1,-1.629139185E-1,3.210366641E-1
1.864977411E0,7.355785370E-2,-2.148275375E-1,-1.652463675E-1,2.808344542E-1
1.869993557E0,7.102966309E-2,-1.741180420E-1,-1.320070028E-1,2.297567287E-1
1.875009651E0,3.035640717E-2,-1.245241165E-1,-1.086508036E-1,1.680260818E-1
1.880025796E0,-2.427577972E-2,-9.459447861E-2,-8.866155148E-2,1.319026140E-1
1.885041942E0,-8.335971832E-2,-4.632091522E-2,-7.665073872E-2,1.223511568E-1
1.890058036E0,-1.206684113E-1,-1.533985138E-2,-5.115866661E-2,1.319597881E-1
1.895074182E0,-1.601819992E-1,3.164863586E-2,-4.787147045E-2,1.701516580E-1
1.900090276E0,-1.994562149E-1,7.084560394E-2,-3.104078770E-2,2.139285202E-1
1.905106421E0,-2.123460770E-1,9.302520752E-2,-5.011534691E-2,2.371836707E-1
1.910122567E0,-1.989469528E-1,1.364159584E-1,-4.102051258E-2,2.446873233E-1
1.915138661E0,-1.642923355E-1,1.579966545E-1,-5.387485027E-2,2.342165960E-1
1.920154807E0,-1.274099350E-1,1.985120773E-1,-7.670760155E-2,2.480411105E-1
1.925170901E0,-8.608150482E-2,1.793031693E-1,-7.597994804E-2,2.129145474E-1
1.930187046E0,-5.226325989E-2,2.005062103E-1,-8.037710190E-2,2.222491107E-1
1.935203140E0,-2.818870544E-2,2.263164520E-1,-1.064107418E-1,2.516684039E-1
1.940219286E0,1.222229004E-2,2.351927757E-1,-9.437334538E-2,2.537151049E-1
1.945235380E0,5.216979980E-2,2.604784966E-1,-8.721864223E-2,2.796029805E-1
1.950251526E0,9.873676300E-2,2.995715141E-1,-7.787311077E-2,3.248942318E-1
1.955267671E0,1.494970322E-1,3.427615166E-1,-3.586435318E-2,3.756608466E-1
1.960283765E0,1.714353561E-1,3.547148705E-1,-1.404225826E-2,3.942206307E-1
1.965299911E0,2.025084496E-1,3.781089783E-1,-4.757761955E-3,4.289507057E-1
1.970316005E0,2.189588547E-1,3.892745972E-1,8.952498436E-3,4.467189712E-1
1.975332151E0,2.398262024E-1,3.596467972E-1,1.968860626E-2,4.327240082E-1
1.980348244E0,2.698297501E-1,3.561410904E-1,5.626106262E-2,4.503441767E-1
1.985364390E0,3.182568550E-1,3.000903130E-1,9.031569958E-2,4.466526025E-1
1.990380536E0,3.686370850E-1,2.516303062E-1,1.285810471E-1,4.644827199E-1
1.995396630E0,4.138693810E-1,1.705307961E-1,2.047678232E-1,4.922382333E-1
2.000412776E0,4.516944885E-1,1.142082214E-1,2.713243961E-1,5.391552251E-1
2.005428869E0,5.011472702E-1,7.542181015E-2,3.620370626E-1,6.228225033E-1
2.010445015E0,5.359025002E-1,7.534646988E-2,4.225677252E-1,6.866091046E-1
2.015461109E0,5.750274658E-1,7.322978973E-2,4.721869230E-1,7.476494358E-1
2.020477255E0,5.805253983E-1,1.020708084E-1,4.362692833E-1,7.333205817E-1
2.025493401E0,5.718078613E-1,1.093468666E-1,3.621082306E-1,6.855970669E-1
2.030509494E0,5.490722656E-1,1.451196671E-1,3.137912750E-1,6.488490078E-1
2.035525640E0,4.888019562E-1,1.761531830E-1,2.558231354E-1,5.791396834E-1
2.040541734E0,4.053559303E-1,2.023057938E-1,2.575484514E-1,5.211259630E-1
2.045557880E0,2.942109108E-1,2.238006592E-1,2.715301514E-1,4.586670014E-1
2.050573974E0,1.650490761E-1,2.120561600E-1,2.736810446E-1,3.835496404E-1
2.055590119E0,1.524925232E-3,2.434034348E-1,2.898710966E-1,3.785139497E-1
2.060606265E0,-1.625628471E-1,2.585406303E-1,2.892602682E-1,4.206440771E-1
2.065622359E0,-3.294911385E-1,2.958908081E-1,3.154718876E-1,5.437263029E-1
2.070638505E0,-4.922709465E-1,3.126869202E-1,3.294453621E-1,6.698044800E-1
2.075654599E0,-6.300473213E-1,2.873425484E-1,3.395262957E-1,7.712350307E-1
2.080670744E0,-6.916198730E-1,2.049822807E-1,3.202081919E-1,7.892332167E-1
2.085686838E0,-6.209950447E-1,8.910560608E-2,2.327398062E-1,6.691356155E-1
2.090702984E0,-4.311623573E-1,-3.676795959E-2,1.088886261E-1,4.462169810E-1
2.095719130E0,-1.297621727E-1,-1.463289261E-1,-2.476239204E-2,1.971384086E-1
2.100735224E0,2.021384239E-1,-2.345571518E-1,-1.411914825E-1,3.403116728E-1
2.105751369E0,4.488778114E-1,-3.052253723E-1,-2.143224478E-1,5.835991168E-1
2.110767463E0,5.715389252E-1,-2.943968773E-1,-2.000640631E-1,6.733141122E-1
2.115783609E0,5.752406120E-1,-2.687354088E-1,-9.005045891E-2,6.412718353E-1
2.120799755E0,5.075545311E-1,-2.140855789E-1,9.121644497E-2,5.583589141E-1
2.125815849E0,3.705019951E-1,-7.820367813E-2,2.642734051E-1,4.617661489E-1
2.130831994E0,3.076667786E-1,2.893114090E-2,2.640472651E-1,4.064687143E-1
2.135848088E0,3.476185799E-1,1.479268074E-1,1.427862644E-1,4.038674717E-1
2.140864234E0,3.542628288E-1,2.527356148E-1,-1.135909557E-2,4.353234107E-1
2.145880380E0,3.589477539E-1,3.532590866E-1,-1.528060436E-1,5.262937956E-1
2.150896474E0,3.355436325E-1,4.376654625E-1,-2.484419346E-1,6.048669120E-1
2.155912619E0,2.459640503E-1,4.653849602E-1,-2.628613710E-1,5.883685712E-1
2.160928713E0,1.092324257E-1,4.719834328E-1,-2.371716499E-1,5.393982528E-1
2.165944859E0,-3.427457809E-2,4.641785622E-1,-1.836431026E-1,5.003611430E-1
2.170960953E0,-1.467695236E-1,4.007463455E-1,-5.729675293E-2,4.306063683E-1
2.175977099E0,-2.307529449E-1,3.247008324E-1,7.218432426E-2,4.048309880E-1
2.180993244E0,-2.553720474E-1,2.717227936E-1,2.095099688E-1,4.277178815E-1
2.186009338E0,-2.352247238E-1,1.820483208E-1,3.099123240E-1,4.295554799E-1
2.191025484E0,-1.799430847E-1,1.442751884E-1,3.786160946E-1,4.433339495E-1
2.196041578E0,-1.132044792E-1,5.354642868E-2,3.989435434E-1,4.181368496E-1
2.201057724E0,-1.574325562E-2,-3.726005554E-3,3.951562643E-1,3.954873025E-1
2.206073869E0,8.407688141E-2,-3.431367874E-2,3.840733767E-1,3.946627791E-1
2.211089963E0,1.770234108E-1,-6.643772125E-2,3.613595963E-1,4.078382235E-1
2.216106109E0,2.176265717E-1,-7.866525650E-2,3.655356169E-1,4.326266687E-1
2.221122203E0,1.990113258E-1,-8.506298065E-2,3.731049299E-1,4.313334061E-1
2.226138349E0,1.522946358E-1,-6.180381775E-2,3.484354019E-1,3.852539387E-1
2.231154494E0,8.687162399E-2,-2.597856522E-2,3.536114693E-1,3.650515527E-1
2.236170588E0,3.146457672E-2,4.388189316E-2,3.168357611E-1,3.214040131E-1
2.241186734E0,-2.117824554E-2,1.116561890E-1,2.902002335E-1,3.116597474E-1
2.246202828E0,-6.159877777E-2,1.867485046E-1,2.496006489E-1,3.177576078E-1
2.251218974E0,-7.543468475E-2,2.595872879E-1,2.019517422E-1,3.374321530E-1
2.256235067E0,-1.129798889E-1,3.324518204E-1,1.543161869E-1,3.835389859E-1
2.261251213E0,-1.360316277E-1,3.647041321E-1,1.116982698E-1,4.049570485E-1
2.266267359E0,-1.396355629E-1,3.758244514E-1,8.138835430E-2,4.091041102E-1
2.271283453E0,-9.771299362E-2,3.633131981E-1,5.869019032E-2,3.807740110E-1
2.276299599E0,-1.011552811E-1,3.630161285E-1,4.113817215E-2,3.790850164E-1
2.281315744E0,-8.056926727E-2,3.128166199E-1,2.393710613E-2,3.239114533E-1
2.286331838E0,-6.671619415E-2,2.565846443E-1,-1.180183887E-2,2.653790000E-1
2.291347984E0,-5.765867233E-2,1.654257774E-1,-1.688003540E-3,1.751943483E-1
2.296364078E0,-2.739715576E-2,7.513332367E-2,2.571308613E-2,8.400466218E-2
2.301380224E0,7.468700409E-3,-2.832221985E-2,3.224599361E-2,4.356298575E-2
2.306396317E0,5.623865128E-2,-8.798980713E-2,4.912531376E-2,1.154048894E-1
2.311412463E0,1.023125648E-1,-1.420722008E-1,5.012214184E-2,1.821115050E-1
2.316428609E0,1.646299362E-1,-1.765241623E-1,4.221045971E-2,2.450418713E-1
2.321444703E0,1.909785271E-1,-2.198643684E-1,-2.221143246E-2,2.920727410E-1
2.326460849E0,2.100977898E-1,-2.460312843E-1,-6.698155403E-2,3.303921953E-1
2.331476942E0,2.361116409E-1,-2.839193344E-1,-1.114560366E-1,3.857218473E-1
2.336493088E0,2.332510948E-1,-3.002586365E-1,-1.578320265E-1,4.116700992E-1
2.341509234E0,1.899604797E-1,-2.715673447E-1,-1.758909225E-1,3.751951801E-1
2.346525328E0,1.730065346E-1,-2.505335808E-1,-1.849623919E-1,3.562434877E-1
2.351541474E0,1.392898560E-1,-2.253956795E-1,-1.827667952E-1,3.218828633E-1
2.356557567E0,5.586624146E-2,-1.984462738E-1,-1.316467524E-1,2.446074977E-1
2.361573713E0,-1.281070709E-2,-1.389379501E-1,-1.033457518E-1,1.736324066E-1
2.366589859E0,-7.867002487E-2,-1.111788750E-1,-5.970728397E-2,1.487100360E-1
2.371605953E0,-1.940612793E-1,-4.374790192E-2,-1.020741463E-2,1.991929978E-1
2.376622099E0,-2.610793114E-1,8.537769318E-3,9.289383888E-3,2.613839953E-1
2.381638192E0,-3.560781479E-1,4.591989517E-2,2.787506580E-2,3.601073499E-1
2.386654338E0,-4.243121147E-1,6.365823746E-2,3.364586830E-2,4.303779575E-1
2.391670484E0,-5.251889229E-1,9.300231934E-2,3.156709671E-2,5.342932881E-1
2.396686578E0,-6.017289162E-1,8.141994476E-2,2.685296535E-2,6.078058717E-1
2.401702724E0,-6.635169983E-1,9.358215332E-2,2.465605736E-2,6.705373574E-1
2.406718869E0,-7.033505440E-1,1.010193825E-1,1.305389404E-2,7.106879115E-1
2.411734963E0,-7.380833626E-1,8.956670761E-2,-2.411580086E-2,7.438889817E-1
2.416751109E0,-7.464332581E-1,8.304500580E-2,-4.400992393E-2,7.523270267E-1
2.421767203E0,-7.427644730E-1,6.479740143E-2,-8.756339550E-2,7.507097400E-1
2.426783349E0,-7.460689545E-1,5.161046982E-2,-1.143738031E-1,7.565473496E-1
2.431799494E0,-7.112078667E-1,3.863620758E-2,-1.626616716E-1,7.305944193E-1
2.436815588E0,-6.906275749E-1,-4.912853241E-3,-1.991589069E-1,7.187870711E-1
2.441831734E0,-6.509432793E-1,-4.078483582E-2,-2.430140972E-1,6.960218438E-1
2.446847828E0,-6.565556526E-1,-8.340549469E-2,-3.058898449E-1,7.291024611E-1
2.451863974E0,-6.429891586E-1,-1.279988289E-1,-3.070008755E-1,7.239256149E-1
2.456880119E0,-6.413226128E-1,-1.768794060E-1,-3.010504246E-1,7.302139248E-1
2.461896213E0,-6.230525970E-1,-1.967887878E-1,-2.925437689E-1,7.158926054E-1
2.466912359E0,-6.169509888E-1,-2.545952797E-1,-2.600997686E-1,7.163094084E-1
2.471928453E0,-5.633382797E-1,-2.879467010E-1,-2.772754431E-1,6.907568251E-1
2.476944599E0,-5.053520203E-1,-3.065981865E-1,-2.631084919E-1,6.470001475E-1
2.481960744E0,-4.383292198E-1,-3.487591743E-1,-2.726564407E-1,6.229823443E-1
2.486976838E0,-3.741002083E-1,-3.428926468E-1,-2.653985023E-1,5.726802756E-1
2.491992984E0,-3.055338860E-1,-3.558731079E-1,-2.865110636E-1,5.496227924E-1
2.497009130E0,-2.351050377E-1,-3.687176704E-1,-3.076485395E-1,5.346725382E-1
2.502025224E0,-1.724014282E-1,-3.956875801E-1,-3.261758089E-1,5.410005285E-1
2.507041369E0,-1.220660210E-1,-4.011254311E-1,-3.283334970E-1,5.325454067E-1
2.512057463E0,-8.403158188E-2,-3.947334290E-1,-3.165801764E-1,5.129315693E-1
2.517073609E0,-6.534671783E-2,-4.051651955E-1,-2.816712856E-1,4.977627370E-1
2.522089755E0,-4.418849945E-2,-4.083218575E-1,-2.289391756E-1,4.702047521E-1
2.527105849E0,-5.890989304E-2,-3.902969360E-1,-1.534202099E-1,4.234853416E-1
2.532121994E0,-1.065840721E-1,-3.652586937E-1,-8.149361610E-2,3.891211729E-1
2.537138088E0,-1.703076363E-1,-3.285651207E-1,1.038622856E-2,3.702264216E-1
2.542154234E0,-2.143020630E-1,-2.683219910E-1,6.065952778E-2,3.487142718E-1
2.547170380E0,-2.624845505E-1,-1.895093918E-1,9.807002544E-2,3.382745611E-1
2.552186474E0,-2.791771889E-1,-1.087985039E-1,8.500969410E-2,3.114541143E-1
2.557202619E0,-2.953333855E-1,-2.603387833E-2,7.170259953E-2,3.050259566E-1
2.562218713E0,-3.253607750E-1,3.728628159E-2,4.650616646E-2,3.307759426E-1
2.567234859E0,-3.455023766E-1,1.073780060E-1,-2.171754837E-3,3.618102333E-1
2.572251005E0,-3.962368965E-1,1.437544823E-1,-6.476843357E-2,4.264551317E-1
2.577267099E0,-4.084005356E-1,1.752743721E-1,-9.594917297E-2,4.546628936E-1
2.582283244E0,-4.511265755E-1,2.210597992E-1,-1.266356707E-1,5.180918982E-1
2.587299390E0,-4.458074570E-1,2.311010361E-1,-1.023805141E-1,5.124780456E-1
2.592315484E0,-4.235391617E-1,2.414398193E-1,-1.092931032E-1,4.996234485E-1
2.597331630E0,-4.129214287E-1,2.354903221E-1,-7.112216949E-2,4.806434864E-1
2.602347724E0,-3.877730370E-1,2.227911949E-1,-3.359556198E-2,4.484779889E-1
2.607363869E0,-3.363342285E-1,2.010722160E-1,-1.317346096E-2,3.920768922E-1
2.612380015E0,-3.348317146E-1,1.822462082E-1,9.296655655E-3,3.813297593E-1
2.617396109E0,-3.212389946E-1,1.472010612E-1,3.628420830E-2,3.552170996E-1
2.622412255E0,-2.553629875E-1,1.197061539E-1,4.861104488E-2,2.861867438E-1
2.627428401E0,-1.899509430E-1,8.782291412E-2,5.621635914E-2,2.166898798E-1
2.632444494E0,-6.574535370E-2,7.283401489E-2,8.519637585E-2,1.299448641E-1
2.637460640E0,3.605794907E-2,6.746959686E-2,1.020228863E-1,1.275185928E-1
2.642476786E0,1.323118210E-1,5.980300903E-2,1.399251223E-1,2.016478557E-1
2.647492880E0,2.347970009E-1,6.161165237E-2,1.798651218E-1,3.021209847E-1
2.652509026E0,3.387017250E-1,7.047176361E-2,1.911307573E-1,3.952418176E-1
2.657525119E0,4.392638206E-1,6.734848022E-2,2.001644373E-1,4.873954492E-1
2.662541265E0,5.318379402E-1,3.815221786E-2,1.617707014E-1,5.572045820E-1
2.667557411E0,6.257719994E-1,5.894708633E-2,1.266328096E-1,6.411717575E-1
2.672573505E0,7.067961693E-1,5.335521698E-2,1.138225794E-1,7.178880022E-1
2.677589651E0,7.892999649E-1,6.667041779E-2,8.484804630E-2,7.966420590E-1
2.682605744E0,8.400278091E-1,6.785297394E-2,6.826794147E-2,8.455242504E-1
2.687621890E0,8.878884315E-1,6.179618835E-2,7.534217834E-2,8.932195025E-1
2.692638036E0,9.447188377E-1,7.228422165E-2,9.180045128E-2,9.519170205E-1
2.697654130E0,9.724497795E-1,6.585931778E-2,9.110903740E-2,9.789263916E-1
2.702670276E0,9.902796745E-1,7.587385178E-2,1.138159037E-1,9.996823171E-1
2.707686369E0,9.888253212E-1,8.799982071E-2,1.147025824E-1,9.993378641E-1
2.712702515E0,9.635953903E-1,9.519386292E-2,1.533049345E-1,9.803470563E-1
2.717718661E0,9.266586304E-1,1.426982880E-1,1.798733473E-1,9.546797577E-1
2.722734755E0,8.759064674E-1,1.638536453E-1,2.181859016E-1,9.174231545E-1
2.727750901E0,8.162579536E-1,2.278242111E-1,2.469662428E-1,8.827079036E-1
2.732767046E0,7.787919044E-1,2.608537674E-1,2.642128468E-1,8.627687679E-1
2.737783140E0,6.656699181E-1,3.104166985E-1,2.631272078E-1,7.801992655E-1
2.742799286E0,4.965457916E-1,2.956876755E-1,2.438817024E-1,6.272696465E-1
2.747815432E0,3.381958008E-1,3.072495461E-1,2.113702297E-1,5.034441947E-1
2.752831526E0,3.141937256E-1,3.023371696E-1,1.490175724E-1,4.607946378E-1
2.757847671E0,1.977329254E-1,2.809000015E-1,1.114448309E-1,3.611413449E-1
2.762863817E0,4.871845245E-2,2.499895096E-1,7.474374771E-2,2.654333633E-1
2.767879911E0,-5.680704117E-2,2.023582458E-1,7.209956646E-2,2.222031662E-1
2.772896057E0,-1.453256607E-1,1.548004150E-1,7.967972755E-2,2.267853063E-1
2.777912151E0,-1.957025528E-1,1.024889946E-1,1.283009052E-1,2.554693826E-1
2.782928296E0,-2.152276039E-1,1.048951149E-1,1.484407187E-1,2.817100523E-1
2.787944442E0,-2.397079468E-1,7.854175568E-2,1.736170053E-1,3.062214422E-1
2.792960536E0,-2.237687111E-1,4.043483734E-2,1.773382425E-1,2.883682791E-1
2.797976682E0,-1.891741753E-1,2.381896973E-2,1.952278614E-1,2.728884933E-1
2.802992828E0,-1.690874100E-1,2.388811111E-2,1.720665693E-1,2.424213240E-1
2.808008921E0,-1.396346092E-1,3.340148926E-2,1.628559828E-1,2.171072424E-1
2.813025067E0,-1.268362999E-1,1.203775406E-2,1.601133347E-1,2.046182651E-1
2.818041213E0,-1.186594963E-1,9.909629822E-3,1.423149109E-1,1.855581060E-1
2.823057307E0,-1.339654922E-1,3.224372864E-3,1.642869711E-1,2.120079210E-1
2.828073453E0,-1.559906006E-1,-8.025169373E-3,1.568723917E-1,2.213739327E-1
2.833089546E0,-2.132291794E-1,-1.908922195E-2,1.655287743E-1,2.706120035E-1
2.838105692E0,-2.580223083E-1,-2.047061920E-2,1.716879606E-1,3.105983156E-1
2.843121838E0,-2.998738289E-1,-3.361654282E-2,1.939288378E-1,3.586959427E-1
2.848137932E0,-3.270645142E-1,-2.991247177E-2,1.948544979E-1,3.818824790E-1
2.853154078E0,-3.658657074E-1,-4.987096786E-2,1.961141825E-1,4.180975985E-1
2.858170224E0,-4.089612961E-1,-4.817152023E-2,1.997092962E-1,4.576610537E-1
2.863186317E0,-4.135856628E-1,-9.141302109E-2,1.964291334E-1,4.668981103E-1
2.868202463E0,-4.513373375E-1,-1.175217628E-1,2.054505348E-1,5.096338678E-1
2.873218557E0,-4.577579498E-1,-1.693396568E-1,2.169684172E-1,5.341287804E-1
2.878234703E0,-4.425053596E-1,-1.848492622E-1,2.190134525E-1,5.272069190E-1
2.883250849E0,-4.223771095E-1,-2.094445229E-1,2.212362289E-1,5.207829680E-1
2.888266942E0,-3.948984146E-1,-2.215437889E-1,2.094217539E-1,4.988826308E-1
2.893283088E0,-3.578433990E-1,-2.142176628E-1,1.907875538E-1,4.586294757E-1
2.898299234E0,-3.135418892E-1,-1.946096420E-1,1.536414623E-1,3.997338214E-1
2.903315328E0,-3.000307083E-1,-1.770930290E-1,1.406936646E-1,3.757327163E-1
2.908331474E0,-2.507214546E-1,-1.925826073E-1,1.212298870E-1,3.385941434E-1
2.913347619E0,-2.038493156E-1,-1.624822617E-1,1.020517349E-1,2.799456830E-1
2.918363713E0,-1.785550117E-1,-1.917657852E-1,6.193625927E-2,2.692435864E-1
2.923379859E0,-1.627860069E-1,-1.921024323E-1,4.848372936E-2,2.564240639E-1
2.928395953E0,-1.375331879E-1,-1.804008484E-1,3.541505337E-2,2.295954483E-1
2.933412099E0,-1.100397110E-1,-1.995663643E-1,2.256071568E-2,2.290075493E-1
2.938428244E0,-8.030557632E-2,-1.851854324E-1,1.486217976E-2,2.023944524E-1
2.943444390E0,-6.270790100E-2,-1.566166878E-1,-8.990526199E-3,1.689434737E-1
2.948460484E0,-4.510974884E-2,-1.447319984E-1,-4.671752453E-2,1.586340692E-1
2.953476630E0,-2.530384064E-2,-1.091885567E-1,-1.029553413E-1,1.521914175E-1
2.958492724E0,-5.481719971E-3,-9.275388718E-2,-1.373119354E-1,1.657947540E-1
2.963508869E0,4.985475540E-2,-6.454515457E-2,-1.691313982E-1,1.877684837E-1
2.968525015E0,4.536533356E-2,-8.167409897E-2,-2.267253399E-1,2.452204145E-1
2.973541109E0,1.482963562E-2,-9.393930435E-2,-2.414071560E-1,2.594646912E-1
2.978557255E0,-3.463459015E-2,-1.254105568E-1,-2.020573616E-1,2.403217426E-1
2.983573401E0,-1.029367447E-1,-1.474909782E-1,-2.182798386E-1,2.828350226E-1
2.988589494E0,-1.565790176E-1,-1.269121170E-1,-1.850994825E-1,2.736521380E-1
2.993605640E0,-1.744985580E-1,-1.306524277E-1,-1.431603432E-1,2.607962566E-1
2.998621734E0,-1.948122978E-1,-1.179332733E-1,-1.420900822E-1,2.684207142E-1
3.003637880E0,-1.793980598E-1,-7.214736938E-2,-1.149965525E-1,2.249735848E-1
3.008654026E0,-1.381282806E-1,-3.870916367E-2,-8.087599277E-2,1.646777079E-1
3.013670119E0,-1.114449501E-1,-3.397798538E-2,-3.251814842E-2,1.209624337E-1
3.018686265E0,-6.120824814E-2,6.419181824E-3,-8.002638817E-3,6.206204769E-2
3.023702411E0,-2.780103683E-2,4.196596146E-2,1.650118828E-2,5.297479386E-2
3.028718505E0,5.388736725E-3,5.829524994E-2,3.611576557E-2,6.878752192E-2
3.033734651E0,2.718925476E-3,6.504297256E-2,3.668534756E-2,7.472479884E-2
3.038750796E0,3.111028671E-2,6.233167648E-2,5.826854706E-2,9.082021476E-2
3.043766890E0,1.885080338E-2,6.431579590E-2,5.816364288E-2,8.874054171E-2
3.048783036E0,2.807807922E-2,6.862163544E-2,6.017124653E-2,9.548762376E-2
3.053799182E0,3.918647766E-3,4.190540314E-2,4.999887943E-2,6.535523358E-2
3.058815276E0,3.680706024E-3,6.043338776E-2,4.431986809E-2,7.503327702E-2
3.063831421E0,-1.324558258E-2,3.595542908E-2,3.367793560E-2,5.101413220E-2
3.068847515E0,-1.581716537E-2,4.959297180E-2,1.813507080E-2,5.512282980E-2
3.073863661E0,-3.739213943E-2,7.254648209E-2,3.576242924E-2,8.910732573E-2
3.078879807E0,-3.751087189E-2,5.483150482E-2,3.406095505E-2,7.465727084E-2
3.083895901E0,-4.234266281E-2,5.392980576E-2,5.381226540E-2,8.716125831E-2
3.088912046E0,-2.830123901E-2,5.051612854E-2,7.338857651E-2,9.348113464E-2
3.093928192E0,-3.324842453E-2,4.248046875E-2,8.559679985E-2,1.011773695E-1
3.098944286E0,-4.541921616E-2,1.777076721E-2,1.048573256E-1,1.156449916E-1
3.103960432E0,-4.331064224E-2,5.092144012E-3,1.264015436E-1,1.337127215E-1
3.108976578E0,-3.409337997E-2,-3.042221069E-4,1.551271677E-1,1.588297493E-1
3.113992671E0,-1.777744293E-2,3.945350647E-3,1.886366606E-1,1.895135694E-1
3.119008817E0,5.607604980E-3,2.487516403E-2,2.148336172E-1,2.163416328E-1
3.124024963E0,3.833436966E-2,6.233167648E-2,2.339110374E-1,2.450900553E-1
3.129041057E0,5.895376205E-2,6.635236740E-2,2.009968758E-1,2.197223857E-1
3.134057203E0,7.212543488E-2,6.080818176E-2,1.926229000E-1,2.144837871E-1
3.139073349E0,7.802534103E-2,6.242895126E-2,1.749796867E-1,2.015024034E-1
3.144089442E0,1.005873680E-1,6.650447845E-2,1.456480026E-1,1.890872945E-1
3.149105588E0,1.086678505E-1,6.104135513E-2,1.333551407E-1,1.825331266E-1
3.154121734E0,1.073207855E-1,3.198862076E-2,1.186904907E-1,1.631822768E-1
3.159137828E0,1.131224632E-1,-1.819992065E-2,1.039999723E-1,1.547382404E-1
3.164153974E0,1.189632416E-1,-4.657506943E-2,9.153783321E-2,1.571644516E-1
3.169170119E0,8.684825897E-2,-6.753110886E-2,4.112148285E-2,1.174480613E-1
3.174186213E0,5.510234833E-2,-7.395935059E-2,2.443599701E-2,9.541159406E-2
3.179202359E0,1.655578613E-2,-7.553768158E-2,1.735901833E-2,7.925510022E-2
3.184218505E0,-2.635049820E-2,-8.649826050E-2,3.417849541E-3,9.048745504E-2
3.189234599E0,-4.741525650E-2,-9.958934784E-2,-1.017189026E-2,1.107687325E-1
3.194250744E0,-9.918308258E-2,-7.697486877E-2,-1.179635525E-2,1.261014207E-1
3.199266838E0,-1.219053268E-1,-5.913877487E-2,-2.742445469E-2,1.382403853E-1
3.204282984E0,-1.562142372E-1,-8.889102936E-2,-3.364443779E-2,1.828563677E-1
3.209299130E0,-2.067518234E-1,-1.017165184E-1,-2.574896812E-2,2.318524875E-1
3.214315224E0,-2.236056328E-1,-1.215820312E-1,-2.528429031E-2,2.557752229E-1
3.219331369E0,-2.380266190E-1,-1.342868805E-1,-8.478164673E-3,2.734255235E-1
3.224347515E0,-2.641639709E-1,-1.373591423E-1,8.182644844E-3,2.978541475E-1
3.229363609E0,-2.520585060E-1,-1.308965683E-1,3.223538399E-3,2.840383658E-1
3.234379755E0,-2.400236130E-1,-1.292228699E-1,-6.516218185E-3,2.726762659E-1
3.239395901E0,-2.256631851E-1,-1.275177002E-1,-6.685495377E-3,2.592861987E-1
3.244411994E0,-2.161002159E-1,-9.250974655E-2,-2.339315414E-2,2.362299646E-1
3.249428140E0,-1.756424904E-1,-8.140897751E-2,-2.558386326E-2,1.952747810E-1
3.254444286E0,-1.497993469E-1,-9.180498123E-2,-3.016912937E-2,1.782643410E-1
3.259460380E0,-1.479482651E-1,-9.028863907E-2,-5.377149582E-2,1.814720398E-1
3.264476526E0,-1.293544769E-1,-5.782699585E-2,-7.497680187E-2,1.603061539E-1
3.269492671E0,-1.013870239E-1,-5.646276474E-2,-7.458925247E-2,1.379526332E-1
3.274508765E0,-1.044034958E-1,-6.452226639E-2,-7.192862034E-2,1.422565964E-1
3.279524911E0,-1.238861084E-1,-4.633998871E-2,-4.346537590E-2,1.392278755E-1
3.284541057E0,-1.169147491E-1,-3.292179108E-2,-2.485811710E-2,1.239791470E-1
3.289557151E0,-1.267561913E-1,-2.684688568E-2,-1.820111275E-2,1.308402377E-1
3.294573296E0,-1.175284386E-1,-5.167770386E-2,2.709746361E-3,1.284167500E-1
3.299589442E0,-1.202168465E-1,-9.526538849E-2,-5.039095879E-3,1.534697915E-1
3.304605536E0,-9.449052811E-2,-9.345722198E-2,3.957986832E-3,1.329600613E-1
3.309621682E0,-6.885480881E-2,-8.917236328E-2,-3.710150719E-3,1.127229359E-1
3.314637828E0,-1.966953278E-2,-1.039075851E-1,-6.621837616E-3,1.059600184E-1
3.319653921E0,3.162193298E-2,-9.463024139E-2,-2.282142639E-3,9.979998701E-2
3.324670067E0,6.112480164E-2,-1.091480255E-1,-5.010008812E-3,1.251983747E-1
3.329686161E0,9.520816803E-2,-4.988670349E-2,8.844017982E-3,1.078494094E-1
3.334702307E0,1.195826530E-1,-2.431440353E-2,2.247405052E-2,1.240817637E-1
3.339718453E0,1.508717537E-1,-6.111145020E-3,1.683986187E-2,1.519316067E-1
3.344734599E0,1.391692162E-1,2.413749695E-3,3.244471550E-2,1.429215046E-1
3.349750692E0,1.537461281E-1,1.325464249E-2,4.530131817E-2,1.608283771E-1
3.354766838E0,1.396641731E-1,3.818798065E-2,6.981921196E-2,1.607455302E-1
3.359782932E0,1.351079941E-1,5.808687210E-2,8.463561535E-2,1.696804118E-1
3.364799078E0,1.068816185E-1,6.363439560E-2,1.065988541E-1,1.638179855E-1
3.369815224E0,9.078979492E-2,7.634210587E-2,1.358025074E-1,1.803142396E-1
3.374831317E0,6.527662277E-2,7.709169388E-2,1.532595158E-1,1.835555663E-1
3.379847463E0,5.173254013E-2,6.117296219E-2,1.637561321E-1,1.823032030E-1
3.384863609E0,6.447553635E-2,5.735540390E-2,1.506515741E-1,1.736163412E-1
3.389879703E0,6.053113937E-2,4.650640488E-2,1.496659517E-1,1.680082190E-1
3.394895849E0,5.422449112E-2,9.648323059E-3,1.417306662E-1,1.520558033E-1
3.399911994E0,6.697893143E-2,-7.853507996E-4,1.338119507E-1,1.496410110E-1
3.404928088E0,7.259798050E-2,3.167629242E-3,1.163085699E-1,1.371429330E-1
3.409944234E0,5.221891403E-2,1.206398010E-4,1.322263479E-1,1.421641186E-1
3.414960380E0,6.047630310E-2,1.364898682E-2,1.358968019E-1,1.493707430E-1
3.419976474E0,4.016304016E-2,3.316402435E-3,1.585445404E-1,1.635861841E-1
3.424992619E0,-1.306056976E-3,3.349733353E-2,1.811486483E-1,1.842243467E-1
3.430008765E0,-1.162815094E-2,5.150508881E-2,2.130970955E-1,2.195412494E-1
3.435024859E0,-4.317617416E-2,7.421255112E-2,2.094372511E-1,2.263529255E-1
3.440041005E0,-8.390045166E-2,9.443521500E-2,1.608394384E-1,2.045155754E-1
3.445057151E0,-1.052432060E-1,7.418537140E-2,1.317089796E-1,1.841924457E-1
3.450073244E0,-1.359276772E-1,7.544231415E-2,7.666099072E-2,1.733343119E-1
3.455089390E0,-1.379690170E-1,8.131265640E-2,2.189838886E-2,1.616376725E-1
3.460105536E0,-1.564874649E-1,5.160379410E-2,6.693601608E-4,1.647778088E-1
3.465121630E0,-1.487145424E-1,3.634881973E-2,-2.543103695E-2,1.551901719E-1
3.470137776E0,-1.552224159E-1,3.781461716E-2,-3.259348869E-2,1.630529950E-1
3.475153921E0,-1.308140755E-1,-8.196353912E-3,-2.297019958E-2,1.330681503E-1
3.480170015E0,-1.043019295E-1,-2.301073074E-2,-2.762734890E-2,1.103252312E-1
3.485186161E0,-7.796621323E-2,-2.579498291E-2,-3.464210033E-2,8.913016697E-2
3.490202307E0,-5.182266235E-2,-2.847480774E-2,-3.179943562E-2,6.713871547E-2
3.495218401E0,-2.337503433E-2,-3.571176529E-2,-3.828144073E-2,5.733403104E-2
3.500234546E0,4.893302917E-3,-5.230236053E-2,-5.879116058E-2,7.884086436E-2
3.505250692E0,3.308820724E-2,-3.775548935E-2,-4.594171047E-2,6.805106315E-2
3.510266786E0,5.888605118E-2,-2.790212631E-2,-8.075237274E-2,1.037643551E-1
3.515282932E0,4.433250427E-2,-2.748394012E-2,-8.945322037E-2,1.035500678E-1
3.520299078E0,2.522993088E-2,-1.517581940E-2,-1.007038355E-1,1.049195758E-1
3.525315171E0,3.873825073E-3,-2.436161041E-2,-9.281015396E-2,9.603238652E-2
3.530331317E0,-3.643608093E-2,-2.647256851E-2,-8.261048794E-2,9.408973161E-2
3.535347463E0,-7.892751694E-2,-7.142686844E-2,-8.198523521E-2,1.343611896E-1
3.540363557E0,-9.975481033E-2,-7.573080063E-2,-6.967389584E-2,1.433200199E-1
3.545379703E0,-1.015639305E-1,-1.014919281E-1,-5.030369759E-2,1.521390990E-1
3.550395849E0,-1.058106422E-1,-1.271357536E-1,-4.311275482E-2,1.709330322E-1
3.555411942E0,-1.075859070E-1,-1.525096893E-1,-2.172708511E-2,1.878989062E-1
3.560428088E0,-4.517126083E-2,-1.610159874E-1,-7.791876793E-3,1.674135728E-1
3.565444234E0,-5.679798126E-2,-1.741552353E-1,3.528237343E-3,1.832170983E-1
3.570460328E0,-4.219007492E-2,-1.586494446E-1,3.150653839E-2,1.671595365E-1
3.575476474E0,-3.956127167E-2,-1.456046104E-1,7.840788364E-2,1.700399748E-1
3.580492619E0,-3.219652176E-2,-1.706604958E-1,8.685123920E-2,1.941771320E-1
3.585508713E0,-4.612779617E-2,-1.407608986E-1,7.160568237E-2,1.645259186E-1
3.590524859E0,-6.937599182E-2,-1.110887527E-1,4.205489159E-2,1.375585444E-1
3.595541005E0,-5.912399292E-2,-1.219754219E-1,1.506125927E-2,1.363836193E-1
3.600557099E0,-6.322956085E-2,-8.293437958E-2,9.679317474E-3,1.047367074E-1
3.605573244E0,-6.492519379E-2,-5.843114853E-2,9.256482124E-3,8.783599699E-2
3.610589390E0,-5.949449539E-2,-2.221727371E-2,-2.752900124E-3,6.356713532E-2
3.615605484E0,-3.264856339E-2,3.276777267E-2,-5.185604095E-3,4.654617178E-2
3.620621630E0,-2.255249023E-2,2.093219757E-2,-5.058765411E-3,3.118273270E-2
3.625637776E0,6.628990173E-3,3.550863266E-2,-1.184821129E-2,3.801561015E-2
3.630653869E0,3.101491928E-2,1.687526703E-2,7.398486137E-3,3.607544113E-2
3.635670015E0,3.888225555E-2,2.715349197E-2,1.933550835E-2,5.121526927E-2
3.640686161E0,6.113338470E-2,3.517532349E-2,4.077148438E-2,8.146722068E-2
3.645702255E0,4.755926132E-2,5.208969116E-3,6.250059605E-2,7.871048979E-2
3.650718401E0,3.428602219E-2,1.131772995E-2,7.004106045E-2,7.879957155E-2
3.655734546E0,6.946563721E-3,3.249645233E-3,3.508353233E-2,3.591196434E-2
3.660750640E0,3.642082214E-3,-1.655006409E-2,5.231976509E-3,1.773535910E-2
3.665766786E0,-4.222106934E-2,-1.706886292E-2,-3.868436813E-2,5.975320171E-2
3.670782932E0,-3.558826447E-2,-3.398418427E-3,-6.775105000E-2,7.660469040E-2
3.675799026E0,-3.362703323E-2,-1.584911346E-2,-7.288980484E-2,8.182234054E-2
3.680815171E0,-4.599809647E-2,-1.163053513E-2,-8.981466293E-2,1.015764141E-1
3.685831317E0,-4.637145996E-2,-5.096912384E-3,-6.173169613E-2,7.737630853E-2
3.690847411E0,-4.212188721E-2,-2.011346817E-2,-4.345536232E-2,6.377439532E-2
3.695863557E0,-5.232763290E-2,-9.093761444E-3,-3.032183647E-2,6.115792205E-2
3.700879703E0,-3.640365601E-2,-1.012420654E-2,-1.504790783E-2,4.067143050E-2
3.705895849E0,-2.077913284E-2,-2.083015442E-2,-1.672506332E-2,3.384369126E-2
3.710911942E0,2.300453186E-2,-4.589462280E-2,-1.849961281E-2,5.456886074E-2
3.715928088E0,2.837371826E-2,-8.265733719E-2,-2.490615845E-2,9.087144770E-2
3.720944182E0,5.990505219E-2,-8.577203751E-2,-9.779930115E-3,1.050766612E-1
3.725960328E0,8.160924911E-2,-1.078672409E-1,-1.659393311E-3,1.352707093E-1
3.730976474E0,9.370040894E-2,-1.035804749E-1,-2.435004711E-2,1.417801333E-1
3.735992567E0,9.856796265E-2,-1.016335487E-1,-4.173874855E-2,1.476046904E-1
3.741008713E0,8.214950562E-2,-8.769416809E-2,-1.015796661E-1,1.573443261E-1
3.746024859E0,5.887413025E-2,-6.658220291E-2,-1.749157906E-1,1.962011385E-1
3.751040953E0,3.836250305E-2,-5.969476700E-2,-2.499192953E-1,2.597976155E-1
3.756057099E0,2.290964127E-2,-6.218624115E-2,-3.145563602E-1,3.214617925E-1
3.761073244E0,3.092765808E-3,-6.213998795E-2,-3.624975681E-1,3.677980835E-1
3.766089390E0,7.214546204E-3,-6.919908524E-2,-3.531346321E-1,3.599230910E-1
3.771105484E0,-9.922981262E-3,-9.038496017E-2,-3.418385983E-1,3.537252236E-1
3.776121630E0,-3.144741058E-3,-9.007644653E-2,-2.977954149E-1,3.111362479E-1
3.781137776E0,-2.493429184E-2,-6.134700775E-2,-2.282503843E-1,2.376623913E-1
3.786153869E0,-3.241586685E-2,-3.538084030E-2,-1.262650490E-1,1.350757376E-1
3.791170015E0,-6.600332260E-2,-3.347444534E-2,-4.202294350E-2,8.510525757E-2
3.796186161E0,-9.467363358E-2,-7.975101471E-3,1.760518551E-2,9.662629919E-2
3.801202255E0,-1.304397583E-1,2.181053162E-2,6.457674503E-2,1.471746780E-1
3.806218401E0,-1.755366325E-1,2.746248245E-2,1.086683273E-1,2.082693032E-1
3.811234546E0,-1.941485405E-1,1.638221741E-2,1.069761515E-1,2.222744470E-1
3.816250640E0,-2.054967880E-1,-8.886814117E-3,8.855795860E-2,2.239428887E-1
3.821266786E0,-2.167744637E-1,1.680850983E-3,8.233714104E-2,2.318909186E-1
3.826282932E0,-2.111721039E-1,-1.612091064E-2,7.170212269E-2,2.235950259E-1
3.831299026E0,-2.102727890E-1,-4.073143005E-2,7.342696190E-2,2.264182279E-1
3.836315171E0,-1.852908134E-1,-7.895565033E-2,4.956305027E-2,2.074202888E-1
3.841331317E0,-1.387662888E-1,-6.418180466E-2,2.400481701E-2,1.547631034E-1
3.846347411E0,-8.733463287E-2,-9.166860580E-2,2.050256729E-2,1.282607760E-1
3.851363557E0,-5.263757706E-2,-7.818126678E-2,2.225697041E-2,9.684212785E-2
3.856379703E0,-4.401254654E-2,-8.108949661E-2,3.362667561E-2,9.820063150E-2
3.861395796E0,-5.181550980E-2,-9.324073792E-2,4.244434834E-2,1.148050738E-1
3.866411942E0,-6.665945053E-2,-8.159160614E-2,9.124028683E-2,1.393752578E-1
3.871428088E0,-7.187032700E-2,-3.445148468E-2,1.394281387E-1,1.606002944E-1
3.876444182E0,-8.171033859E-2,-4.466962814E-2,2.035310268E-1,2.238232204E-1
3.881460328E0,-8.428525925E-2,-1.683044434E-2,2.524825335E-1,2.667108893E-1
3.886476474E0,-7.499647141E-2,2.023601532E-2,2.890858650E-1,2.993402819E-1
3.891492567E0,-5.179262161E-2,3.548526764E-2,3.353157043E-1,3.411426409E-1
3.896508713E0,-1.917409897E-2,3.176212311E-2,3.600004911E-1,3.619072148E-1
3.901524859E0,3.685522079E-2,6.132602692E-2,3.682065010E-1,3.750936100E-1
3.906541005E0,9.963846207E-2,9.321165085E-2,3.673471212E-1,3.918675063E-1
3.911557099E0,1.785640717E-1,1.582031250E-1,3.740488291E-1,4.436506317E-1
3.916573244E0,2.403550148E-1,1.801037788E-1,3.785754442E-1,4.832465947E-1
3.921589390E0,2.993426323E-1,2.114381790E-1,3.357661963E-1,4.970423056E-1
3.926605484E0,3.389625549E-1,2.402133942E-1,2.955063581E-1,5.098255546E-1
3.931621630E0,3.712630272E-1,2.949943542E-1,2.650990486E-1,5.432636652E-1
3.936637776E0,3.749222755E-1,3.375430107E-1,2.372403145E-1,5.574809087E-1
3.941653869E0,3.478207588E-1,3.870220184E-1,2.145358324E-1,5.628418485E-1
3.946670015E0,3.212280273E-1,3.935842514E-1,1.989604235E-1,5.456017399E-1
3.951686161E0,2.759189606E-1,3.788065910E-1,2.026485205E-1,5.105801887E-1
3.956702255E0,2.381510735E-1,3.618593216E-1,2.064933777E-1,4.798933397E-1
3.961718401E0,2.056584358E-1,3.642783165E-1,2.057077885E-1,4.661649690E-1
3.966734546E0,1.876778603E-1,3.406696320E-1,2.268260717E-1,4.502541995E-1
3.971750640E0,1.604495049E-1,3.127303123E-1,2.934721708E-1,4.578975944E-1
3.976766786E0,1.452436447E-1,2.637109756E-1,3.672662973E-1,4.748933861E-1
3.981782932E0,1.467261314E-1,2.507710457E-1,4.670832753E-1,5.500740505E-1
3.986799078E0,1.243715286E-1,2.331576347E-1,5.591313839E-1,6.184324249E-1
3.991815171E0,1.635870934E-1,2.154679298E-1,6.223773956E-1,6.786315558E-1
3.996831317E0,1.830654144E-1,2.023515701E-1,6.664163470E-1,7.201179428E-1
4.001847463E0,1.829123497E-1,1.770396233E-1,6.412826777E-1,6.899590050E-1
4.006863557E0,1.989173889E-1,1.680979729E-1,6.067209840E-1,6.602540485E-1
4.011879703E0,2.644205093E-1,1.921777725E-1,5.293164849E-1,6.221144937E-1
4.016895849E0,3.457670212E-1,2.252297401E-1,4.520196915E-1,6.120498920E-1
4.021911942E0,3.955731392E-1,2.151436806E-1,3.676118851E-1,5.812945981E-1
4.026928088E0,4.425797462E-1,2.121391296E-1,2.690864801E-1,5.597208017E-1
4.031944234E0,4.465050697E-1,2.185211182E-1,1.633949280E-1,5.232744585E-1
4.036960328E0,4.076099396E-1,2.151899338E-1,7.939124107E-2,4.677130954E-1
4.041976474E0,3.239440918E-1,2.212386131E-1,-4.676580429E-3,3.923113164E-1
4.046992619E0,2.007312775E-1,2.438640594E-1,-4.817903042E-2,3.195057812E-1
4.052008765E0,7.140398026E-2,2.424893379E-1,-8.920919895E-2,2.680632175E-1
4.057024859E0,-5.922412872E-2,2.363119125E-1,-1.017054319E-1,2.639977506E-1
4.062041005E0,-1.959090233E-1,2.159624100E-1,-1.400243044E-1,3.234608380E-1
4.067057151E0,-3.125691414E-1,2.028374672E-1,-1.754913330E-1,4.118734201E-1
4.072073244E0,-3.902611732E-1,1.780200005E-1,-2.032709122E-1,4.746724846E-1
4.077089390E0,-4.316525459E-1,1.297845840E-1,-2.019799948E-1,4.939269956E-1
4.082105536E0,-4.250249863E-1,7.504510880E-2,-1.815578938E-1,4.682320750E-1
4.087121630E0,-3.921132088E-1,3.046083450E-2,-1.637554169E-1,4.260240222E-1
4.092137776E0,-3.593635559E-1,-3.266906738E-2,-1.510244608E-1,3.911749238E-1
4.097153921E0,-3.292312622E-1,-9.294605255E-2,-1.292843819E-1,3.657138828E-1
4.102170015E0,-3.325824738E-1,-1.456246376E-1,-1.102759838E-1,3.794448966E-1
4.107186161E0,-3.002085686E-1,-1.693511009E-1,-1.059700251E-1,3.606031423E-1
4.112202307E0,-2.467064857E-1,-2.166543007E-1,-1.115167141E-1,3.467551782E-1
4.117218453E0,-2.197861671E-1,-2.398467064E-1,-1.503061056E-1,3.583634011E-1
4.122234546E0,-1.692585945E-1,-2.438058853E-1,-1.961104870E-1,3.557374097E-1
4.127250692E0,-1.546039581E-1,-2.214946747E-1,-2.512027025E-1,3.688699941E-1
4.132266838E0,-1.493868828E-1,-1.849365234E-1,-3.437926769E-1,4.179848839E-1
4.137282932E0,-1.370191574E-1,-1.913151741E-1,-4.117408991E-1,4.742428843E-1
4.142299078E0,-1.674389839E-1,-2.071371078E-1,-4.912416935E-1,5.588022872E-1
4.147315224E0,-1.688847542E-1,-1.941637993E-1,-5.561039448E-1,6.127587115E-1
4.152331369E0,-1.772007942E-1,-2.024960518E-1,-5.946242809E-1,6.526735845E-1
4.157347463E0,-1.898465157E-1,-1.844139099E-1,-6.309942007E-1,6.842542444E-1
4.162363609E0,-2.068557739E-1,-1.259112358E-1,-6.412642002E-1,6.854653346E-1
4.167379755E0,-2.565598488E-1,-8.892536163E-2,-6.422272921E-1,6.972708015E-1
4.172395849E0,-3.081798553E-1,-5.697107315E-2,-6.314435005E-1,7.049407215E-1
4.177411994E0,-3.950738907E-1,-3.958272934E-2,-6.348756552E-1,7.488105696E-1
4.182428140E0,-4.601764679E-1,-3.211259842E-2,-6.429928541E-1,7.913491082E-1
4.187444286E0,-4.822812080E-1,-5.116224289E-2,-6.537613869E-1,8.140127086E-1
4.192460380E0,-4.879903793E-1,-4.204893112E-2,-6.648473740E-1,8.257873537E-1
4.197476526E0,-4.511761665E-1,-7.136917114E-2,-6.502783298E-1,7.946794310E-1
4.202492671E0,-3.935799599E-1,-7.710599899E-2,-5.651997328E-1,6.930377030E-1
4.207508765E0,-3.485593796E-1,-1.211953163E-1,-4.579548836E-1,5.881365668E-1
4.212524911E0,-2.706708908E-1,-1.627082825E-1,-3.381409645E-1,4.626835076E-1
4.217541057E0,-1.980285645E-1,-1.635460854E-1,-2.462869883E-1,3.558369219E-1
4.222557203E0,-1.137151718E-1,-1.522898674E-1,-2.011753321E-1,2.767577610E-1
4.227573296E0,-3.670692444E-2,-8.136749268E-2,-1.736134291E-1,1.952170329E-1
4.232589442E0,9.314060211E-3,1.309967041E-2,-1.991112232E-1,1.997589355E-1
4.237605588E0,-6.403923035E-3,9.998083115E-2,-2.460470200E-1,2.656620275E-1
4.242621682E0,-6.932067871E-2,1.505422592E-1,-3.098971844E-1,3.514322028E-1
4.247637828E0,-1.152343750E-1,2.075452805E-1,-3.809401989E-1,4.488534725E-1
4.252653974E0,-1.563105583E-1,1.971893311E-1,-3.997623920E-1,4.723627769E-1
4.257670119E0,-2.235999107E-1,1.697225571E-1,-3.906258345E-1,4.810314013E-1
4.262686213E0,-2.455968857E-1,1.443586349E-1,-3.537224531E-1,4.541770795E-1
4.267702359E0,-2.176489830E-1,1.071462631E-1,-2.891597748E-1,3.774450647E-1
4.272718505E0,-2.158889771E-1,9.888076782E-2,-2.134273052E-1,3.192752281E-1
4.277734599E0,-2.018256187E-1,1.054005623E-1,-2.475527525E-1,3.363409344E-1
4.282750744E0,-1.752452850E-1,1.672768593E-1,-3.407001495E-1,4.180538835E-1
4.287766890E0,-2.004532814E-1,2.365231514E-1,-4.422422647E-1,5.400953063E-1
4.292783036E0,-3.033967018E-1,2.748627663E-1,-5.756739378E-1,7.063990244E-1
4.297799130E0,-4.053311348E-1,2.465791702E-1,-6.035393476E-1,7.676941840E-1
4.302815276E0,-5.329318047E-1,1.778187752E-1,-5.954141617E-1,8.186292501E-1
4.307831421E0,-6.124205589E-1,9.492063522E-2,-4.997330904E-1,7.961168442E-1
4.312847567E0,-5.991497040E-1,-1.866292953E-2,-3.385345936E-1,6.884288952E-1
4.317863661E0,-5.436968803E-1,-9.852933884E-2,-1.147665977E-1,5.643453732E-1
4.322879807E0,-4.533038139E-1,-1.779532433E-1,1.283227205E-1,5.036054260E-1
4.327895953E0,-3.160138130E-1,-2.352213860E-1,3.428839445E-1,5.222673930E-1
4.332912046E0,-1.462845802E-1,-2.156286240E-1,4.987839460E-1,5.627435532E-1
4.337928192E0,-8.442401886E-3,-2.266054153E-1,5.822483301E-1,6.248475065E-1
4.342944338E0,9.537220001E-2,-2.299652100E-1,5.937577486E-1,6.438385810E-1
4.347960484E0,1.746811867E-1,-2.236456871E-1,5.743699670E-1,6.406494902E-1
4.352976578E0,2.343983650E-1,-1.911416054E-1,5.101304054E-1,5.930520528E-1
4.357992724E0,2.699790001E-1,-1.208171844E-1,4.201058149E-1,5.137843403E-1
4.363008869E0,3.195333481E-1,-3.677988052E-2,3.189156055E-1,4.529475506E-1
4.368025015E0,3.235511780E-1,7.027530670E-2,2.088406086E-1,3.914567451E-1
4.373041109E0,2.846279144E-1,1.620168686E-1,1.232606173E-1,3.499367016E-1
4.378057255E0,2.625288963E-1,2.338256836E-1,7.591760159E-2,3.596656141E-1
4.383073401E0,2.214350700E-1,2.667613029E-1,1.401400566E-2,3.469747474E-1
4.388089494E0,1.756711006E-1,2.990589142E-1,-1.720106602E-2,3.472642314E-1
4.393105640E0,1.229472160E-1,2.762250900E-1,2.032434940E-2,3.030336573E-1
4.398121786E0,7.033824921E-2,2.295360565E-1,5.041062832E-2,2.453069546E-1
4.403137932E0,4.404878616E-2,1.569371223E-1,1.041334867E-1,1.934252801E-1
4.408154026E0,1.564025879E-2,8.984470367E-2,1.626157165E-1,1.864418400E-1
4.413170171E0,1.897811890E-3,4.261255264E-2,1.712383032E-1,1.764709262E-1
4.418186317E0,2.654600143E-2,5.752563477E-3,1.687759161E-1,1.709476295E-1
4.423202463E0,1.090669632E-2,-1.612234116E-2,1.361398101E-1,1.375243026E-1
4.428218557E0,2.171897888E-2,-5.645751953E-2,1.210487485E-1,1.353217095E-1
4.433234703E0,-2.214097977E-2,-9.393835068E-2,1.256405711E-1,1.584303943E-1
4.438250849E0,-6.198883057E-3,-1.546955109E-1,1.304262877E-1,2.024355298E-1
4.443266994E0,3.580331802E-2,-1.578149796E-1,1.995433569E-1,2.569143761E-1
4.448283088E0,6.806421280E-2,-1.868381500E-1,2.921259403E-1,3.533819412E-1
4.453299234E0,1.332850456E-1,-2.083878517E-1,4.011365771E-1,4.712758785E-1
4.458315380E0,1.718516350E-1,-2.272572517E-1,5.193615556E-1,5.923810162E-1
4.463331526E0,2.386188507E-1,-2.291779518E-1,5.993592143E-1,6.846115375E-1
4.468347619E0,3.310532570E-1,-2.355866432E-1,6.295410395E-1,7.492791508E-1
4.473363765E0,4.157943726E-1,-1.988754272E-1,6.624877453E-1,8.070479592E-1
4.478379911E0,4.834790230E-1,-1.905441284E-1,7.030278444E-1,8.742466360E-1
4.483396057E0,5.698208809E-1,-1.795539856E-1,7.438435555E-1,9.540643086E-1
4.488412151E0,6.034154892E-1,-1.469941139E-1,7.918234468E-1,1.006330906E0
4.493428296E0,6.010246277E-1,-9.331083298E-2,8.116965890E-1,1.014292299E0
4.498444442E0,5.868353844E-1,-8.027696609E-2,8.486328721E-1,1.034890289E0
4.503460588E0,5.439925194E-1,-2.954673767E-2,8.575535417E-1,1.015971923E0
4.508476682E0,4.940695763E-1,-3.198623657E-3,8.885678053E-1,1.016694508E0
4.513492828E0,4.681143761E-1,8.572578430E-3,8.463398814E-1,9.672102941E-1
4.518508974E0,4.613990784E-1,6.305599213E-2,7.809483409E-1,9.092554530E-1
4.523525119E0,3.883528709E-1,1.219811440E-1,6.523037553E-1,7.688937124E-1
4.528541213E0,3.208646774E-1,1.687569618E-1,5.103445053E-1,6.260068430E-1
4.533557359E0,2.138023376E-1,1.726441383E-1,3.765429556E-1,4.661566641E-1
4.538573505E0,9.601545334E-2,1.506290436E-1,2.719703317E-1,3.253858285E-1
4.543589651E0,-1.325511932E-2,1.126008034E-1,2.249054313E-1,2.518672113E-1
4.548605744E0,-1.566529274E-1,1.205983162E-1,2.253133655E-1,2.997502397E-1
4.553621890E0,-2.556881905E-1,1.242923737E-1,2.566595674E-1,3.830132875E-1
4.558638036E0,-3.391475677E-1,1.451373100E-1,3.041765690E-1,4.781310454E-1
4.563654182E0,-4.169025421E-1,1.186337471E-1,3.749422431E-1,5.731172491E-1
4.568670328E0,-5.058393478E-1,1.066546440E-1,4.354251921E-1,6.759021799E-1
4.573686421E0,-5.728836060E-1,7.795429230E-2,4.787894785E-1,7.506742719E-1
4.578702567E0,-5.826663971E-1,4.682397842E-2,5.121020079E-1,7.771364627E-1
4.583718713E0,-5.713343620E-1,1.561021805E-2,5.356034040E-1,7.832864346E-1
4.588734859E0,-5.271482468E-1,3.335952759E-3,5.135954618E-1,7.359868892E-1
4.593750953E0,-4.762139320E-1,1.727294922E-2,4.202562571E-1,6.353687004E-1
4.598767099E0,-3.947105408E-1,4.785537720E-2,3.107688725E-1,5.046422894E-1
4.603783244E0,-2.897677422E-1,9.519767761E-2,1.565277576E-1,3.428248549E-1
4.608799390E0,-1.876697540E-1,1.829447746E-1,3.112912178E-3,2.621038294E-1
4.613815536E0,-1.000790596E-1,2.895665169E-1,-1.308354139E-1,3.331403479E-1
4.618831630E0,-4.596662521E-2,3.815355301E-1,-2.551760674E-1,4.612993786E-1
4.623847776E0,-3.471994400E-2,4.540238380E-1,-3.107249141E-1,5.512649928E-1
4.628863921E0,-5.186510086E-2,4.975543022E-1,-2.956748605E-1,5.810971480E-1
4.633880067E0,-1.187362671E-1,5.121912956E-1,-2.077465653E-1,5.653289837E-1
4.638896161E0,-1.779303551E-1,4.839892387E-1,-9.199023247E-3,5.157416180E-1
4.643912307E0,-2.415523529E-1,4.725165367E-1,1.998059154E-1,5.670465770E-1
4.648928453E0,-3.166456223E-1,4.350004196E-1,3.650362790E-1,6.501855890E-1
4.653944599E0,-3.888292313E-1,4.120621681E-1,4.844632745E-1,7.454448778E-1
4.658960692E0,-4.580812454E-1,3.917493820E-1,4.918645918E-1,7.779696539E-1
4.663976838E0,-4.792957306E-1,3.574194908E-1,3.879426718E-1,7.127219699E-1
4.668992984E0,-5.288200378E-1,3.590402603E-1,2.278624475E-1,6.785881195E-1
4.674009130E0,-4.782786369E-1,3.440155983E-1,4.309260845E-2,5.907234203E-1
4.679025276E0,-4.162964821E-1,3.172407150E-1,-1.310791969E-1,5.395611070E-1
4.684041369E0,-3.265757561E-1,2.856626511E-1,-1.950409412E-1,4.757056269E-1
4.689057515E0,-2.329921722E-1,2.328295708E-1,-1.590698957E-1,3.657843533E-1
4.694073661E0,-1.498465538E-1,1.802816391E-1,-9.260815382E-2,2.520550123E-1
4.699089807E0,-3.169918060E-2,1.164488792E-1,-1.004290581E-2,1.211034247E-1
4.704105901E0,7.134151459E-2,4.625654221E-2,5.799245834E-2,1.029194084E-1
4.709122046E0,1.118621826E-1,-1.840734482E-2,1.214370430E-1,1.661292679E-1
4.714138192E0,1.525321007E-1,-9.129762650E-2,1.426273286E-1,2.279119418E-1
4.719154338E0,2.217178345E-1,-1.178607941E-1,8.654904366E-2,2.655949959E-1
4.724170484E0,2.648291588E-1,-1.124835014E-1,-5.636107922E-2,2.931954854E-1
4.729186578E0,3.057813644E-1,-1.134829521E-1,-2.262071967E-1,3.969260877E-1
4.734202724E0,3.303594589E-1,-8.046436310E-2,-3.994852901E-1,5.245954468E-1
4.739218869E0,3.934378624E-1,-1.671791077E-3,-5.381920934E-1,6.666684902E-1
4.744235015E0,4.161682129E-1,7.473707199E-2,-5.935958624E-1,7.287919176E-1
4.749251161E0,3.798460960E-1,1.392502785E-1,-5.709677339E-1,6.997698549E-1
4.754267255E0,3.203105927E-1,1.014323235E-1,-4.210006595E-1,5.386361919E-1
4.759283401E0,2.044320107E-1,7.836151123E-2,-2.137199044E-1,3.059561586E-1
4.764299546E0,8.013153076E-2,4.143667221E-2,-3.938227892E-2,9.843283964E-2
4.769315692E0,-4.309272766E-2,1.682710648E-2,7.401672006E-2,8.728464663E-2
4.774331786E0,-2.198710442E-1,-2.167654037E-2,9.636440873E-2,2.410378554E-1
4.779347932E0,-3.403949738E-1,-4.288053513E-2,8.078265190E-2,3.524674670E-1
4.784364078E0,-4.786958694E-1,-1.600646973E-2,-7.846355438E-4,4.789640468E-1
4.789380224E0,-4.776802063E-1,2.566576004E-2,-5.970621109E-2,4.820808463E-1
4.794396369E0,-4.928202629E-1,4.400682449E-2,-1.464310884E-1,5.159946471E-1
4.799412463E0,-5.288395882E-1,6.993913651E-2,-2.037869096E-1,5.710445669E-1
4.804428609E0,-5.713939667E-1,9.143543243E-2,-1.489950418E-1,5.975374682E-1
4.809444755E0,-5.892858505E-1,1.349959373E-1,-1.139367223E-1,6.151937040E-1
4.814460901E0,-4.924793243E-1,2.052612305E-1,-5.549103022E-3,5.335717854E-1
4.819477046E0,-4.456224442E-1,2.617859840E-1,5.161592364E-2,5.193991411E-1
4.824493140E0,-4.175052643E-1,3.283495903E-1,4.368397593E-2,5.329468913E-1
4.829509286E0,-4.461774826E-1,3.499588966E-1,-2.930581570E-3,5.670574606E-1
4.834525432E0,-4.838428497E-1,3.718709946E-1,-2.887564898E-2,6.109220433E-1
4.839541578E0,-5.733823776E-1,3.582258224E-1,-1.468440890E-2,6.762460519E-1
4.844557724E0,-6.194324493E-1,2.998189926E-1,8.964532614E-2,6.939915505E-1
4.849573817E0,-6.508483887E-1,1.994395256E-1,2.126071304E-1,7.131490316E-1
4.854589963E0,-6.225528717E-1,1.074538231E-1,3.187717497E-1,7.076254875E-1
4.859606109E0,-4.826412201E-1,3.355503082E-2,4.274763167E-1,6.456039721E-1
4.864622255E0,-3.317794800E-1,-8.891820908E-2,4.625074267E-1,5.761051909E-1
4.869638401E0,-1.698446274E-1,-1.096987724E-1,4.431182444E-1,4.870675483E-1
4.874654546E0,5.578994751E-4,-9.866809845E-2,4.172466993E-1,4.287546070E-1
4.879670640E0,1.174898148E-1,-8.480072021E-2,3.466909826E-1,3.757521206E-1
4.884686786E0,1.647844315E-1,-7.052326202E-2,2.073078901E-1,2.740510913E-1
4.889702932E0,2.355842590E-1,-4.163074493E-2,8.042222261E-2,2.523901660E-1
4.894719078E0,2.941350937E-1,1.847696304E-2,4.128396511E-3,2.947437788E-1
4.899735224E0,3.072633743E-1,7.862854004E-2,-4.097175598E-2,3.197998019E-1
4.904751317E0,2.705192566E-1,1.268286705E-1,-1.260098815E-2,2.990400721E-1
4.909767463E0,2.176780701E-1,1.752471924E-1,2.457809448E-2,2.805341394E-1
4.914783609E0,1.249084473E-1,2.116603851E-1,6.306189299E-2,2.537302528E-1
4.919799755E0,-1.218795776E-2,2.338604927E-1,1.318501681E-1,2.687447547E-1
4.924815901E0,-1.909151077E-1,2.751660347E-1,1.860090941E-1,3.830983008E-1
4.929831994E0,-3.302030563E-1,3.021879196E-1,1.900244355E-1,4.862724373E-1
4.934848140E0,-4.669790268E-1,3.411250114E-1,1.594892293E-1,5.998937399E-1
4.939864286E0,-6.228494644E-1,3.227686882E-1,1.311511844E-1,7.136677901E-1
4.944880432E0,-7.523202896E-1,3.165855408E-1,1.095371246E-1,8.235354300E-1
4.949896578E0,-7.934169769E-1,2.529315948E-1,7.502691448E-2,8.361303301E-1
4.954912724E0,-8.777103424E-1,2.156691551E-1,3.277285397E-2,9.044128977E-1
4.959928817E0,-8.304014206E-1,1.788163185E-1,-4.894614220E-3,8.494502648E-1
4.964944963E0,-7.593812943E-1,1.923799515E-1,3.624464571E-2,7.842089455E-1
4.969961109E0,-7.483797073E-1,1.749706268E-1,1.233580709E-2,7.686605745E-1
4.974977255E0,-6.993265152E-1,1.457071304E-1,1.259095967E-2,7.144555094E-1
4.979993401E0,-6.432523727E-1,1.239194870E-1,1.296164095E-2,6.552081031E-1
4.985009546E0,-5.347290039E-1,1.143789291E-1,-6.329369545E-2,5.504759204E-1
4.990025640E0,-4.359598160E-1,7.411003113E-2,-1.630275548E-1,4.713080113E-1
4.995041786E0,-3.466863632E-1,5.860233307E-2,-2.408507168E-1,4.261862688E-1
5.000057932E0,-1.854190826E-1,6.818103790E-2,-4.139148593E-1,4.586440896E-1
5.005074078E0,-1.681613922E-2,9.325695038E-2,-4.385407865E-1,4.486620808E-1
5.010090224E0,8.266353607E-2,1.196360588E-1,-4.698546231E-1,4.918428749E-1
5.015106317E0,1.082181931E-1,1.854114532E-1,-4.887060523E-1,5.337810318E-1
5.020122463E0,6.701278687E-2,2.521157265E-1,-5.356655121E-1,5.958108710E-1
5.025138609E0,4.514598846E-2,3.316006660E-1,-5.008198023E-1,6.023434538E-1
5.030154755E0,-2.215957642E-2,3.756742477E-1,-4.032732844E-1,5.515900010E-1
5.035170901E0,-9.902000427E-2,4.082136154E-1,-3.295326233E-1,5.338867547E-1
5.040187046E0,-1.735439301E-1,4.553956985E-1,-2.748612165E-1,5.595099876E-1
5.045203140E0,-2.146291733E-1,4.981279373E-1,-2.772487998E-1,6.091502450E-1
5.050219286E0,-2.748975754E-1,5.125603676E-1,-2.961337864E-1,6.526729861E-1
5.055235432E0,-3.018169403E-1,5.057067871E-1,-3.125369847E-1,6.667174715E-1
5.060251578E0,-3.145627975E-1,5.015020370E-1,-3.525726199E-1,6.890293891E-1
5.065267724E0,-3.107652664E-1,5.071134567E-1,-3.416845500E-1,6.859208705E-1
5.070283869E0,-3.359642029E-1,5.127663612E-1,-3.181309402E-1,6.906580789E-1
5.075300015E0,-2.801475525E-1,5.758137703E-1,-3.492558897E-1,7.293996337E-1
5.080316109E0,-1.528663635E-1,6.629586220E-1,-4.808236659E-1,8.331108313E-1
5.085332255E0,-1.646423340E-2,7.094137669E-1,-5.529468656E-1,8.996050243E-1
5.090348401E0,4.308605194E-2,7.442045212E-1,-6.299048066E-1,9.759492008E-1
5.095364546E0,1.406841278E-1,7.674326897E-1,-6.253398657E-1,9.998974470E-1
5.100380692E0,2.476577759E-1,7.458086014E-1,-6.037053466E-1,9.909717399E-1
5.105396786E0,3.519821167E-1,6.864480972E-1,-5.558431745E-1,9.508228201E-1
5.110412932E0,3.962907791E-1,5.942392349E-1,-4.751541913E-1,8.578683788E-1
5.115429078E0,4.499340057E-1,5.121209621E-1,-3.518174291E-1,7.671271034E-1
5.120445224E0,4.340209961E-1,4.043002129E-1,-2.292627692E-1,6.359200457E-1
5.125461369E0,3.892250061E-1,3.256609440E-1,-1.329581141E-1,5.246227368E-1
5.130477515E0,3.752689362E-1,3.333201408E-1,-3.209117427E-2,5.029502303E-1
5.135493661E0,3.035449982E-1,3.432183266E-1,1.834131405E-2,4.585572913E-1
5.140509755E0,3.558826447E-1,4.056508541E-1,6.205894053E-3,5.396698855E-1
5.145525901E0,4.579792023E-1,5.061166286E-1,-4.675445333E-2,6.841673556E-1
5.150542046E0,5.548105240E-1,5.896582603E-1,-1.352262795E-1,8.208518308E-1
5.155558192E0,6.200675964E-1,6.562335491E-1,-1.632927954E-1,9.174915979E-1
5.160574338E0,6.634445190E-1,6.415634155E-1,-1.479586959E-1,9.346946141E-1
5.165590484E0,7.399444580E-1,6.341586113E-1,-1.394210607E-1,9.844354613E-1
5.170606630E0,8.065595627E-1,6.198976040E-1,-1.454209983E-1,1.027598479E0
5.175622724E0,8.466396332E-1,6.157619953E-1,-1.006320268E-1,1.051707330E0
5.180638869E0,8.888664246E-1,6.407530308E-1,-1.489673555E-1,1.105820618E0
5.185655015E0,9.093141556E-1,7.091817856E-1,-1.854274571E-1,1.167978759E0
5.190671161E0,8.936109543E-1,8.017141819E-1,-1.433064789E-1,1.209058689E0
5.195687307E0,8.728399277E-1,8.392312527E-1,1.819431782E-3,1.210851744E0
5.200703453E0,8.230371475E-1,8.287632465E-1,1.616515815E-1,1.179139474E0
5.205719546E0,8.015604019E-1,7.701280117E-1,2.595227659E-1,1.141467607E0
5.210735692E0,8.345861435E-1,7.467131615E-1,3.096669912E-1,1.161898542E0
5.215751838E0,9.364738464E-1,7.491748333E-1,3.217621446E-1,1.241683162E0
5.220767984E0,1.085561752E0,7.389805317E-1,3.002837896E-1,1.347110574E0
5.225784130E0,1.274679184E0,6.971888542E-1,3.340653777E-1,1.490798107E0
5.230800276E0,1.479944229E0,6.838865280E-1,3.227135837E-1,1.661950589E0
5.235816421E0,1.641553879E0,7.348141670E-1,2.429310530E-1,1.814846135E0
5.240832515E0,1.783435822E0,7.731881142E-1,2.408986837E-1,1.958697364E0
5.245848661E0,1.836320877E0,7.393622398E-1,2.929368615E-1,2.001135400E0
5.250864807E0,1.910285950E0,6.978533268E-1,3.773444593E-1,2.068472991E0
5.255880953E0,2.000484467E0,6.054434776E-1,4.437461495E-1,2.136682136E0
5.260897099E0,2.042346001E0,4.741439819E-1,5.039587021E-1,2.156377535E0
5.265913244E0,2.095739841E0,3.184633255E-1,5.507038236E-1,2.190164166E0
5.270929390E0,2.177391529E0,2.029867172E-1,5.549998283E-1,2.256160962E0
5.275945536E0,2.210762978E0,1.491875648E-1,5.074492097E-1,2.273155202E0
5.280961630E0,2.262874126E0,1.809240580E-1,4.269800186E-1,2.309901462E0
5.285977776E0,2.305030346E0,1.953301430E-1,3.926185369E-1,2.346373388E0
5.290993921E0,2.313338280E0,1.924244165E-1,3.589008152E-1,2.348908459E0
5.296010067E0,2.275903702E0,2.033660412E-1,3.665267229E-1,2.314181766E0
5.301026213E0,2.216714859E0,1.660567522E-1,3.866094947E-1,2.256294864E0
5.306042359E0,2.145364285E0,9.486901760E-2,4.026383758E-1,2.184881165E0
5.311058505E0,2.028354168E0,4.940843582E-2,3.807004094E-1,2.064363007E0
5.316074599E0,1.899229050E0,9.802579880E-4,2.847784162E-1,1.920461062E0
5.321090744E0,1.798629761E0,1.872086525E-2,1.512036175E-1,1.805071196E0
5.326106890E0,1.745615005E0,2.817833424E-2,5.371381715E-2,1.746668526E0
5.331123036E0,1.687507629E0,-6.690621376E-3,3.537416458E-2,1.687891612E0
5.336139182E0,1.674518585E0,-8.359563351E-2,1.273239106E-1,1.681431563E0
5.341155328E0,1.658803940E0,-1.449795961E-1,2.645529509E-1,1.686012413E0
5.346171474E0,1.726472855E0,-1.812077761E-1,2.963342965E-1,1.761067515E0
5.351187619E0,1.784169197E0,-2.187062502E-1,3.020315766E-1,1.822721926E0
5.356203713E0,1.800815582E0,-3.245481253E-1,3.150075674E-1,1.856743928E0
5.361219859E0,1.795605659E0,-4.078161716E-1,3.202002943E-1,1.868968149E0
5.366236005E0,1.883368492E0,-4.684154987E-1,2.984875739E-1,1.963564307E0
5.371252151E0,1.958827496E0,-5.061297417E-1,2.258455306E-1,2.035725590E0
5.376268296E0,2.002859116E0,-5.044024587E-1,7.426041365E-2,2.066731982E0
5.381284442E0,1.979662895E0,-5.946435332E-1,-7.468223572E-2,2.068391536E0
5.386300588E0,2.008876324E0,-6.859366894E-1,-1.366685033E-1,2.127151030E0
5.391316734E0,1.987610817E0,-7.902972102E-1,-8.720791340E-2,2.140740914E0
5.396332828E0,1.985270023E0,-8.719009161E-1,3.280066326E-2,2.168544248E0
5.401348974E0,2.037678719E0,-9.644929171E-1,1.439475566E-1,2.259004658E0
5.406365119E0,2.096988678E0,-1.027102232E0,2.101810277E-1,2.344456563E0
5.411381265E0,2.184744835E0,-1.064303875E0,1.739948541E-1,2.436416824E0
5.416397411E0,2.229202271E0,-1.059180379E0,8.341906220E-2,2.469446209E0
5.421413557E0,2.239984512E0,-1.004587173E0,-7.576537132E-2,2.456107977E0
5.426429703E0,2.212314606E0,-9.297109842E-1,-2.439786941E-1,2.412099507E0
5.431445849E0,2.148622036E0,-8.945164084E-1,-4.382416010E-1,2.368288825E0
5.436461942E0,2.089585304E0,-9.158738852E-1,-5.602635145E-1,2.349273701E0
5.441478088E0,2.020841599E0,-9.890530109E-1,-6.148527861E-1,2.332395887E0
5.446494234E0,1.916063309E0,-1.099980116E0,-6.303981543E-1,2.297532740E0
5.451510380E0,1.837461472E0,-1.241493344E0,-5.662552118E-1,2.288714781E0
5.456526526E0,1.794564247E0,-1.389608383E0,-4.725351632E-1,2.318353247E0
5.461542671E0,1.765822411E0,-1.537009478E0,-3.087670803E-1,2.361326752E0
5.466558817E0,1.765586853E0,-1.688501358E0,-1.738159060E-1,2.449192875E0
5.471574963E0,1.779529572E0,-1.810228586E0,-1.088230610E-1,2.540766713E0
5.476591057E0,1.853078842E0,-1.818467140E0,-4.933524132E-2,2.596759115E0
5.481607203E0,1.864247322E0,-1.825549364E0,-1.151329577E-1,2.611762653E0
5.486623349E0,1.849004745E0,-1.826391220E0,-1.552523375E-1,2.603579599E0
5.491639494E0,1.783473015E0,-1.859306574E0,-1.960376203E-1,2.583839716E0
5.496655640E0,1.682032585E0,-1.883897305E0,-2.349878252E-1,2.536438832E0
5.501671786E0,1.559123993E0,-1.909463048E0,-2.176299691E-1,2.474728179E0
5.506687932E0,1.469738007E0,-1.876148462E0,-2.602332830E-1,2.397453696E0
5.511704078E0,1.313422203E0,-1.836542845E0,-2.816199362E-1,2.275363112E0
5.516720224E0,1.171545029E0,-1.814236641E0,-2.617955506E-1,2.175433119E0
5.521736317E0,1.027322769E0,-1.763898730E0,-2.555138767E-1,2.057186949E0
5.526752463E0,8.424882889E-1,-1.676244974E0,-3.013939261E-1,1.900111057E0
5.531768609E0,7.510108948E-1,-1.553457260E0,-3.466876149E-1,1.759954296E0
5.536784755E0,6.283769608E-1,-1.434386492E0,-3.674720526E-1,1.608526631E0
5.541800901E0,5.032625198E-1,-1.304971218E0,-3.993204236E-1,1.454537674E0
5.546817046E0,4.450511932E-1,-1.138636827E0,-4.688602686E-1,1.309348823E0
5.551833192E0,4.560670853E-1,-9.520322084E-1,-5.499257445E-1,1.190286031E0
5.556849338E0,5.553417206E-1,-7.811843157E-1,-6.378675103E-1,1.151315909E0
5.561865484E0,6.614465714E-1,-6.427565813E-1,-7.204619050E-1,1.170347361E0
5.566881578E0,7.193622589E-1,-5.009667277E-1,-7.691225410E-1,1.166190038E0
5.571897724E0,7.506895065E-1,-4.228619337E-1,-7.796856761E-1,1.162005466E0
5.576913869E0,6.885118484E-1,-4.394961596E-1,-7.548142672E-1,1.112182547E0
5.581930015E0,6.238107681E-1,-4.838935137E-1,-6.972311139E-1,1.053291998E0
5.586946161E0,6.355066299E-1,-6.301934123E-1,-6.215772629E-1,1.089665411E0
5.591962307E0,6.278362274E-1,-8.183513880E-1,-5.800580382E-1,1.183361589E0
5.596978453E0,6.820993423E-1,-9.767032862E-1,-4.698272943E-1,1.280603962E0
5.601994599E0,7.217159271E-1,-1.140890241E0,-3.505940437E-1,1.394783354E0
5.607010744E0,8.112277985E-1,-1.236679792E0,-2.433924079E-1,1.498902036E0
5.612026838E0,9.338607788E-1,-1.316542029E0,-2.056778669E-1,1.627170014E0
5.617042984E0,1.065608025E0,-1.301328540E0,-2.029427290E-1,1.694155300E0
5.622059130E0,1.215936661E0,-1.258062959E0,-1.600912809E-1,1.756944390E0
5.627075276E0,1.351290703E0,-1.155715823E0,-1.341675520E-1,1.783161955E0
5.632091421E0,1.521838188E0,-1.015957355E0,-1.343973875E-1,1.834727085E0
5.637107567E0,1.655716896E0,-8.582322001E-1,-1.796858907E-1,1.873565576E0
5.642123713E0,1.831917763E0,-6.584996581E-1,-2.250697017E-1,1.959643044E0
5.647139859E0,1.964432716E0,-4.740464687E-1,-2.909602523E-1,2.041659575E0
5.652155953E0,2.093946457E0,-2.999186516E-1,-3.986325264E-1,2.152549849E0
5.657172099E0,2.098569870E0,-2.291649580E-1,-4.216827154E-1,2.152749031E0
5.662188244E0,2.071839333E0,-1.538031101E-1,-4.519560337E-1,2.126132139E0
5.667204390E0,1.956423283E0,-1.119999886E-1,-5.157358646E-1,2.026356222E0
5.672220536E0,1.740537643E0,-8.919763565E-2,-5.462955236E-1,1.826435410E0
5.677236682E0,1.443392754E0,-8.803021908E-2,-5.795403719E-1,1.557882859E0
5.682252828E0,1.146371841E0,-7.274401188E-2,-5.844427347E-1,1.288810847E0
5.687268974E0,8.350801468E-1,-5.537939072E-2,-5.846924782E-1,1.020926551E0
5.692285119E0,5.359048843E-1,-1.660764217E-2,-5.613787174E-1,7.762834039E-1
5.697301213E0,2.990207672E-1,3.361725807E-2,-5.435889959E-1,6.213151662E-1
5.702317359E0,9.088230133E-2,1.214172840E-1,-5.076920986E-1,5.298613182E-1
5.707333505E0,-4.539775848E-2,2.110614777E-1,-4.828910828E-1,5.289534021E-1
5.712349651E0,-1.623954773E-1,2.881300449E-1,-4.485433102E-1,5.572991252E-1
5.717365796E0,-1.716766357E-1,3.907032013E-1,-4.263122082E-1,6.032113706E-1
5.722381942E0,-2.525777817E-1,4.423091412E-1,-3.810125589E-1,6.360844930E-1
5.727398088E0,-2.447977066E-1,5.146517754E-1,-3.319122791E-1,6.595135541E-1
5.732414234E0,-2.847719193E-1,5.190024376E-1,-2.982594967E-1,6.628855886E-1
5.737430380E0,-3.486261368E-1,5.174157619E-1,-2.199125290E-1,6.615291183E-1
5.742446526E0,-3.789701462E-1,4.954185486E-1,-1.902953386E-1,6.521274614E-1
5.747462619E0,-4.381761551E-1,4.888491631E-1,-1.438950300E-1,6.720696592E-1
5.752478765E0,-4.138689041E-1,4.691789150E-1,-1.424407959E-1,6.416429727E-1
5.757494911E0,-3.588724136E-1,4.292356968E-1,-1.876777411E-1,5.901318727E-1
5.762511057E0,-2.350015640E-1,4.003136158E-1,-2.456678152E-1,5.251946320E-1
5.767527203E0,-1.140871048E-1,3.730647564E-1,-3.638404608E-1,5.334538976E-1
5.772543349E0,1.346206665E-2,3.070881367E-1,-4.462789297E-1,5.418941170E-1
5.777559494E0,1.309032440E-1,2.217369080E-1,-5.454106331E-1,6.031381884E-1
5.782575640E0,2.048025131E-1,1.313440800E-1,-5.562894344E-1,6.071682399E-1
5.787591734E0,2.805490494E-1,5.047559738E-2,-6.573977470E-1,7.165384518E-1
5.792607880E0,4.276266098E-1,-1.594805717E-2,-6.603801250E-1,7.869058187E-1
5.797624026E0,5.575504303E-1,-2.934575081E-2,-7.636554241E-1,9.459879821E-1
5.802640171E0,6.919984818E-1,-3.612279892E-3,-7.756147385E-1,1.039448493E0
5.807656317E0,8.070545197E-1,4.934787750E-2,-7.463051081E-1,1.100337914E0
5.812672463E0,9.171524048E-1,1.272222996E-1,-6.854373217E-1,1.152032278E0
5.817688609E0,9.195098877E-1,2.109587193E-1,-5.881152153E-1,1.111702083E0
5.822704755E0,8.859882355E-1,2.835693359E-1,-4.714925289E-1,1.042924698E0
5.827720901E0,8.070001602E-1,3.758163452E-1,-3.955570459E-1,9.741419612E-1
5.832737046E0,6.705980301E-1,4.275362492E-1,-3.080919981E-1,8.528831348E-1
5.837753192E0,4.550523758E-1,4.764947891E-1,-2.061383724E-1,6.903716227E-1
5.842769286E0,2.729320526E-1,5.273969173E-1,-6.416177750E-2,5.972906725E-1
5.847785432E0,1.049175262E-1,5.679605007E-1,6.051921844E-2,5.807317741E-1
5.852801578E0,5.845069885E-3,5.882208347E-1,1.797550917E-1,6.151014617E-1
5.857817724E0,-6.499671936E-2,6.289675236E-1,2.744125128E-1,6.892945281E-1
5.862833869E0,-7.896804810E-2,6.111814976E-1,2.988561392E-1,6.849042032E-1
5.867850015E0,-5.527400970E-2,6.163895130E-1,3.180320263E-1,6.957985467E-1
5.872866161E0,-1.078987122E-2,6.040103436E-1,3.708426952E-1,7.088506338E-1
5.877882307E0,1.016330719E-2,5.896027088E-1,4.260318279E-1,7.274872957E-1
5.882898453E0,-3.469743729E-1,6.173310280E-1,6.192247272E-1,9.407061583E-1
5.887914599E0,-4.236917496E-1,5.638954639E-1,1.919286251E-1,7.309783786E-1
5.892930692E0,-7.680807114E-1,4.249837399E-1,3.640884161E-1,9.503260141E-1
5.897946838E0,-1.143725395E0,2.365067005E-1,6.868487000E-1,1.354918572E0
5.902962984E0,-1.273579597E0,1.276559830E-1,8.347524405E-1,1.528107548E0
5.907979130E0,-1.069562912E0,2.061409950E-1,6.775527000E-1,1.282784703E0
5.912995276E0,-5.291767120E-1,3.283796310E-1,3.801006079E-1,7.296147249E-1
5.918011421E0,2.136735916E-1,4.414310455E-1,6.840455532E-2,4.951736614E-1
5.923027567E0,7.785806656E-1,4.105310440E-1,1.968991756E-2,8.804040458E-1
5.928043713E0,1.134523869E0,3.497867584E-1,2.250473499E-1,1.208363147E0
5.933059859E0,1.298559189E0,2.518358231E-1,5.467787385E-1,1.431308575E0
5.938075953E0,1.361856461E0,1.955313683E-1,8.117206693E-1,1.597427926E0
5.943092099E0,1.377266884E0,1.814961433E-1,9.635502100E-1,1.690631221E0
5.948108244E0,1.335564613E0,1.867356300E-1,1.056023240E0,1.712830440E0
5.953124390E0,1.234764099E0,2.674283981E-1,1.047782898E0,1.641343757E0
5.958140536E0,1.065485954E0,3.765110970E-1,9.362871647E-1,1.467533502E0
5.963156682E0,7.754640579E-1,4.862456322E-1,7.953169942E-1,1.212562758E0
5.968172828E0,4.628915787E-1,6.616759300E-1,6.293340325E-1,1.023789517E0
5.973188974E0,1.542224884E-1,8.816342354E-1,4.874143004E-1,1.019135026E0
5.978205119E0,-2.320737839E-1,1.112290859E0,3.106974363E-1,1.177956745E0
5.983221265E0,-6.291246414E-1,1.307739258E0,1.708824635E-1,1.461225717E0
5.988237411E0,-1.018193245E0,1.450176239E0,5.253612995E-2,1.772706590E0
5.993253505E0,-1.378139496E0,1.533878803E0,-3.828585148E-2,2.062405988E0
5.998269651E0,-1.721425056E0,1.579260826E0,-3.585052490E-2,2.336376306E0
6.003285796E0,-1.921579361E0,1.583240509E0,6.092905998E-2,2.490548153E0
6.008301942E0,-2.038756371E0,1.574000835E0,2.271599770E-1,2.585654235E0
6.013318088E0,-1.998949051E0,1.575292110E0,3.975421190E-1,2.575923578E0
6.018334234E0,-1.921714783E0,1.549056053E0,5.571832061E-1,2.530418046E0
6.023350380E0,-1.747233391E0,1.500306606E0,6.774570942E-1,2.400560882E0
6.028366526E0,-1.547165871E0,1.360108852E0,7.441770434E-1,2.190300845E0
6.033382671E0,-1.357194901E0,1.224674225E0,7.768108249E-1,1.986262826E0
6.038398817E0,-1.193819046E0,1.058626652E0,7.614867091E-1,1.767980857E0
6.043414963E0,-1.011325836E0,8.553438187E-1,6.747596264E-1,1.486503800E0
6.048431057E0,-8.622198105E-1,6.580910683E-1,5.310728550E-1,1.207702460E0
6.053447203E0,-7.055253983E-1,4.743509293E-1,3.396925926E-1,9.155140355E-1
6.058463349E0,-5.362949371E-1,2.970728874E-1,1.720646620E-1,6.367658973E-1
6.063479494E0,-4.286069870E-1,1.453495026E-1,8.046340942E-2,4.596790048E-1
6.068495640E0,-3.510332108E-1,5.046129227E-2,1.648473740E-2,3.550245113E-1
6.073511786E0,-3.539037704E-1,-2.869892120E-2,-2.983343601E-2,3.563166299E-1
6.078527932E0,-3.845233917E-1,-8.974361420E-2,-6.545495987E-2,4.002455582E-1
6.083544078E0,-4.573469162E-1,-9.460830688E-2,-8.772563934E-2,4.751975603E-1
6.088560224E0,-5.053710938E-1,-6.253862381E-2,-8.000659943E-2,5.154726742E-1
6.093576369E0,-5.789566040E-1,-2.004957199E-2,-7.808864117E-2,5.845430442E-1
6.098592515E0,-6.520681381E-1,4.934215546E-2,-6.444966793E-2,6.571006504E-1
6.103608609E0,-7.367515564E-1,1.096682549E-1,-7.472610474E-2,7.486080234E-1
6.108624755E0,-8.211488724E-1,2.182340622E-1,-8.468163013E-2,8.538633117E-1
6.113640901E0,-8.837757111E-1,3.199667931E-1,-1.013402939E-1,9.453613654E-1
6.118657046E0,-9.752216339E-1,4.119954109E-1,-1.580984592E-1,1.070417011E0
6.123673192E0,-1.093156815E0,4.918022156E-1,-2.286188602E-1,1.220298252E0
6.128689338E0,-1.122842789E0,5.425801277E-1,-2.076532841E-1,1.264234555E0
6.133705484E0,-1.155222893E0,6.217041016E-1,-2.056398392E-1,1.327909509E0
6.138721630E0,-1.111346245E0,6.286668777E-1,-2.181802988E-1,1.295343646E0
6.143737776E0,-1.036620617E0,6.138362885E-1,-2.910565138E-1,1.239391458E0
6.148753921E0,-9.813222885E-1,5.700483322E-1,-3.141666651E-1,1.177560711E0
6.153770067E0,-8.927111626E-1,5.380282402E-1,-3.310416937E-1,1.093616116E0
6.158786213E0,-7.970423698E-1,4.988555908E-1,-3.556722403E-1,1.005304025E0
6.163802307E0,-7.183847427E-1,4.380140305E-1,-3.592665195E-1,9.148799711E-1
6.168818453E0,-6.398606300E-1,3.533730507E-1,-3.416076899E-1,8.068394838E-1
6.173834599E0,-5.615711212E-1,2.568473816E-1,-2.881346941E-1,6.814354728E-1
6.178850744E0,-4.427423477E-1,1.558918953E-1,-2.535232306E-1,5.334764268E-1
6.183866890E0,-3.524956703E-1,1.726818085E-2,-2.095129490E-1,4.104230299E-1
6.188883036E0,-2.523307800E-1,-6.796693802E-2,-2.019859552E-1,3.302857147E-1
6.193899182E0,-2.210927010E-1,-1.787753105E-1,-2.479031086E-1,3.772247941E-1
6.198915328E0,-2.490639687E-1,-2.696738243E-1,-3.354498148E-1,4.972759900E-1
6.203931474E0,-2.906990051E-1,-3.644790649E-1,-4.331973791E-1,6.364046430E-1
6.208947567E0,-2.909784317E-1,-4.225535393E-1,-5.196614265E-1,7.302519699E-1
6.213963765E0,-3.045415878E-1,-4.626231194E-1,-5.807442665E-1,8.025145683E-1
6.218979859E0,-2.764873505E-1,-4.920034409E-1,-6.402448416E-1,8.534788210E-1
6.223996005E0,-2.998280525E-1,-5.008296967E-1,-7.150789499E-1,9.230737515E-1
6.229012151E0,-3.555235863E-1,-5.204138756E-1,-7.406377792E-1,9.725080680E-1
6.234028296E0,-4.699907303E-1,-5.268678665E-1,-7.234889269E-1,1.010899235E0
6.239044442E0,-5.954856873E-1,-4.748611450E-1,-6.249749660E-1,9.852360220E-1
6.244060588E0,-7.368259430E-1,-4.505186081E-1,-4.950213432E-1,9.954524684E-1
6.249076734E0,-8.795256615E-1,-3.770756721E-1,-3.596712351E-1,1.022308588E0
6.254092880E0,-9.569220543E-1,-3.433504105E-1,-2.329264879E-1,1.042997637E0
6.259109026E0,-9.739427567E-1,-2.393841743E-1,-1.362628937E-1,1.012144680E0
6.264125171E0,-9.567766190E-1,-2.826275826E-1,-1.342200041E-1,1.006635415E0
6.269141317E0,-9.056258202E-1,-1.047101021E-1,-4.669177532E-2,9.128540154E-1
6.274157411E0,-9.643745422E-1,6.651163101E-2,7.619059086E-2,9.696633750E-1
6.279173557E0,-1.116458893E0,1.612062454E-1,1.096045971E-1,1.133349496E0
6.284189703E0,-1.278179646E0,1.911168098E-1,7.445979118E-2,1.294532001E0
6.289205849E0,-1.356388092E0,2.326340675E-1,2.559769154E-2,1.376431076E0
6.294221994E0,-1.396521091E0,2.402615547E-1,-3.048896790E-2,1.417365990E0
6.299238140E0,-1.391374111E0,2.618417740E-1,-8.232724667E-2,1.418189271E0
6.304254286E0,-1.348184586E0,2.184171677E-1,-1.323983669E-1,1.372165101E0
6.309270432E0,-1.247569084E0,1.557979584E-1,-1.857866049E-1,1.270912383E0
6.314286578E0,-1.125212193E0,5.752801895E-2,-2.211790085E-1,1.148186442E0
6.319302724E0,-1.021458149E0,-7.116365433E-2,-2.625205517E-1,1.057051586E0
6.324318869E0,-9.076642990E-1,-1.799726486E-1,-2.733432055E-1,9.648632763E-1
6.329335015E0,-8.338541985E-1,-3.068995476E-1,-2.200665474E-1,9.153848600E-1
6.334351109E0,-7.687973976E-1,-3.728351593E-1,-1.072906256E-1,8.611427134E-1
6.339367255E0,-7.222318649E-1,-4.329981804E-1,-1.711726189E-3,8.420862313E-1
6.344383401E0,-7.178387642E-1,-4.441394806E-1,9.174954891E-2,8.490997287E-1
6.349399546E0,-6.981873512E-1,-4.039187431E-1,1.755990982E-1,8.255004372E-1
6.354415692E0,-6.801095009E-1,-3.339791298E-1,2.595418692E-1,8.009075940E-1
6.359431838E0,-6.947174072E-1,-2.655072212E-1,3.458470106E-1,8.202051665E-1
6.364447984E0,-6.967444420E-1,-1.987762451E-1,4.105023146E-1,8.327526423E-1
6.369464130E0,-7.555732727E-1,-9.793949127E-2,4.535602331E-1,8.866791976E-1
6.374480276E0,-8.018116951E-1,-3.837585449E-3,4.817153215E-1,9.353963718E-1
6.379496421E0,-8.357343674E-1,7.614040375E-2,5.240441561E-1,9.893793870E-1
6.384512567E0,-8.670029640E-1,1.538348198E-1,5.229997635E-1,1.024152354E0
6.389528713E0,-8.859472275E-1,2.078576088E-1,5.097036362E-1,1.043026880E0
6.394544807E0,-9.047150612E-1,2.427835464E-1,4.960370064E-1,1.059955614E0
6.399560953E0,-8.635478020E-1,2.562789917E-1,4.630939960E-1,1.012842425E0
6.404577099E0,-8.413343430E-1,2.723097801E-1,4.201099873E-1,9.790242563E-1
6.409593244E0,-7.805585861E-1,2.934341431E-1,3.911639452E-1,9.210779200E-1
6.414609390E0,-6.739535332E-1,2.887282372E-1,3.498897552E-1,8.124039639E-1
6.419625536E0,-6.005282402E-1,2.581915855E-1,3.274664879E-1,7.311165179E-1
6.424641682E0,-5.218014717E-1,2.594575882E-1,3.214333057E-1,6.655181335E-1
6.429657828E0,-4.736309052E-1,2.423129082E-1,3.485648632E-1,6.360339957E-1
6.434673974E0,-4.440569878E-1,2.283172607E-1,3.875222206E-1,6.320513044E-1
6.439690119E0,-4.235658646E-1,2.198171616E-1,4.456493855E-1,6.529402736E-1
6.444706265E0,-4.169826508E-1,2.215418816E-1,4.799542427E-1,6.732840496E-1
6.449722411E0,-4.195923805E-1,2.166595459E-1,5.144817829E-1,6.983485015E-1
6.454738557E0,-4.410896301E-1,2.146825790E-1,5.688236952E-1,7.511385144E-1
6.459754651E0,-4.169220924E-1,2.490596771E-1,5.832498074E-1,7.589697568E-1
6.464770849E0,-4.262661934E-1,2.478113174E-1,5.556888580E-1,7.429020283E-1
6.469786942E0,-3.684577942E-1,2.398343086E-1,5.384277701E-1,6.951158935E-1
6.474803088E0,-3.156738281E-1,2.582740784E-1,4.769650698E-1,6.275756075E-1
6.479819234E0,-2.342658043E-1,2.458062172E-1,4.043159485E-1,5.279891568E-1
6.484835380E0,-1.578311920E-1,2.143507004E-1,3.397893906E-1,4.316407509E-1
6.489851526E0,-5.527973175E-2,1.926012039E-1,2.737187147E-1,3.392241254E-1
6.494867671E0,5.658197403E-2,1.540951729E-1,1.769731045E-1,2.413841788E-1
6.499883817E0,1.457104683E-1,1.291546822E-1,1.086735725E-1,2.229852414E-1
6.504899963E0,2.413649559E-1,1.046490669E-1,1.721799374E-2,2.636378737E-1
6.509916109E0,3.172211647E-1,1.017403603E-1,-4.498386383E-2,3.361605513E-1
6.514932255E0,3.736820221E-1,8.489131927E-2,-8.314311504E-2,3.921193279E-1
6.519948401E0,4.322657585E-1,8.507251740E-2,-1.045727730E-1,4.527985027E-1
6.524964546E0,4.667363167E-1,9.966278076E-2,-1.259230375E-1,4.935909952E-1
6.529980640E0,5.058560371E-1,8.585643768E-2,-9.988689423E-2,5.227227275E-1
6.534996786E0,5.091371536E-1,8.892297745E-2,-8.844113350E-2,5.243565306E-1
6.540012932E0,5.053777695E-1,1.111087799E-1,-3.210282326E-2,5.184423228E-1
6.545029078E0,4.802417755E-1,1.117343903E-1,-2.319216728E-3,4.930741483E-1
6.550045224E0,4.339561462E-1,1.171793938E-1,2.731990814E-2,4.503280189E-1
6.555061369E0,3.878493309E-1,1.319060326E-1,7.597649097E-2,4.166518116E-1
6.560077515E0,3.563179970E-1,1.393208504E-1,1.003491879E-1,3.955284741E-1
6.565093661E0,3.129959106E-1,1.085462570E-1,1.129125357E-1,3.499971010E-1
6.570109807E0,2.816214561E-1,8.715915680E-2,1.324089766E-1,3.231710077E-1
6.575125953E0,2.716684341E-1,6.563663483E-2,1.277171373E-1,3.072841895E-1
6.580142099E0,2.235074043E-1,3.672647476E-2,1.156690121E-1,2.543299316E-1
6.585158244E0,2.252540588E-1,-4.341125488E-3,9.150624275E-2,2.431699588E-1
6.590174338E0,2.148466110E-1,-4.082107544E-2,5.975782871E-2,2.267077955E-1
6.595190484E0,2.208566666E-1,-7.281255722E-2,3.741145134E-3,2.325797322E-1
6.600206630E0,2.241187096E-1,-1.050987244E-1,-4.526889324E-2,2.516430220E-1
6.605222776E0,2.414407730E-1,-1.398568153E-1,-9.456419945E-2,2.946115468E-1
6.610238921E0,2.347068787E-1,-1.486215591E-1,-1.015114784E-1,2.957706324E-1
6.615255067E0,2.398395538E-1,-1.717767715E-1,-7.817459106E-2,3.051909853E-1
6.620271213E0,2.424602509E-1,-1.782593727E-1,-6.227278709E-2,3.073129955E-1
6.625287359E0,2.402238846E-1,-1.633939743E-1,-3.929352760E-2,2.931707470E-1
6.630303505E0,2.639207840E-1,-1.464972496E-1,2.632498741E-3,3.018651262E-1
6.635319651E0,2.754468918E-1,-1.440629959E-1,2.539193630E-2,3.118812072E-1
6.640335796E0,2.866692543E-1,-1.205377579E-1,6.700634956E-2,3.181170591E-1
6.645351942E0,3.023610115E-1,-1.306018829E-1,8.960902691E-2,3.413338700E-1
6.650368088E0,3.318166733E-1,-9.820508957E-2,1.172215939E-1,3.653593387E-1
6.655384182E0,3.702774048E-1,-1.067557335E-1,1.256686449E-1,4.053328897E-1
6.660400380E0,4.127454758E-1,-9.915971756E-2,1.365399361E-1,4.459087704E-1
6.665416474E0,4.403281212E-1,-1.323747635E-1,1.354763508E-1,4.793388926E-1
6.670432619E0,4.627227783E-1,-1.442675591E-1,1.247775555E-1,5.004946918E-1
6.675448765E0,5.131897926E-1,-1.492447853E-1,1.355718374E-1,5.513778127E-1
6.680464911E0,5.178890228E-1,-1.663408279E-1,1.179403067E-1,5.565862260E-1
6.685481057E0,5.626807213E-1,-1.954183578E-1,1.102007627E-1,6.057574901E-1
6.690497203E0,5.807895660E-1,-2.078127861E-1,1.171332598E-1,6.278717024E-1
6.695513349E0,6.175031662E-1,-1.775679588E-1,1.055345535E-1,6.511359937E-1
6.700529494E0,6.276550293E-1,-1.974964142E-1,1.016774178E-1,6.658032492E-1
6.705545640E0,6.398358345E-1,-1.937422752E-1,9.129786491E-2,6.747305125E-1
6.710561786E0,6.540460587E-1,-1.878538132E-1,1.076534986E-1,6.889517964E-1
6.715577932E0,6.536450386E-1,-1.679654121E-1,8.412098885E-2,6.801033428E-1
6.720594026E0,6.718535423E-1,-1.747422218E-1,1.041800976E-1,7.019797142E-1
6.725610171E0,6.729168892E-1,-1.581759453E-1,1.219991446E-1,7.019405678E-1
6.730626317E0,6.664743423E-1,-1.635828018E-1,1.161775589E-1,6.960205509E-1
6.735642463E0,6.525306702E-1,-1.505546570E-1,1.151931286E-1,6.795089677E-1
6.740658609E0,6.596336365E-1,-1.714901924E-1,1.284747124E-1,6.935641082E-1
6.745674755E0,6.449141502E-1,-1.643953323E-1,1.247465611E-1,6.771276032E-1
6.750690901E0,6.134328842E-1,-1.933894157E-1,1.327562332E-1,6.567523026E-1
6.755707046E0,5.983829498E-1,-1.896014214E-1,1.357238293E-1,6.422085420E-1
6.760723192E0,5.404853821E-1,-1.838493347E-1,1.408797503E-1,5.880239197E-1
6.765739338E0,5.111856461E-1,-1.762814522E-1,1.460759640E-1,5.601107947E-1
6.770755484E0,4.676628113E-1,-1.572108269E-1,1.536349058E-1,5.167469723E-1
6.775771630E0,4.338517189E-1,-1.551651955E-1,1.372382641E-1,4.807680241E-1
6.780787776E0,3.741135597E-1,-1.651582718E-1,1.398931742E-1,4.322132697E-1
6.785803921E0,3.313803673E-1,-1.704640388E-1,1.330757141E-1,3.957020117E-1
6.790820015E0,2.961316109E-1,-1.496434212E-1,1.237735748E-1,3.541284827E-1
6.795836161E0,2.372937202E-1,-1.363554001E-1,1.096477509E-1,2.948283129E-1
6.800852307E0,1.907067299E-1,-1.304678917E-1,1.122092009E-1,2.568692904E-1
6.805868453E0,1.324872971E-1,-1.034488678E-1,9.109568596E-2,1.911883263E-1
6.810884599E0,6.757879257E-2,-1.076011658E-1,6.773757935E-2,1.439905682E-1
6.815900744E0,1.967763901E-2,-9.776639938E-2,5.851256847E-2,1.156252524E-1
6.820916890E0,-3.048229218E-2,-9.545278549E-2,7.579815388E-2,1.256414125E-1
6.825933036E0,-6.616735458E-2,-1.124076843E-1,4.310941696E-2,1.373755005E-1
6.830949182E0,-8.755636215E-2,-1.081590652E-1,3.458118439E-2,1.433888359E-1
6.835965328E0,-1.113691330E-1,-1.350712776E-1,3.109323978E-2,1.778036090E-1
6.840981474E0,-1.351518631E-1,-1.477761269E-1,1.326823235E-2,2.006984199E-1
6.845997619E0,-1.280188560E-1,-1.867022514E-1,-2.105951309E-2,2.273544838E-1
6.851013765E0,-1.329731941E-1,-2.017512321E-1,-4.312562943E-2,2.454490781E-1
6.856029911E0,-1.166367531E-1,-2.572302818E-1,-6.989455223E-2,2.909584137E-1
6.861046057E0,-8.866643906E-2,-2.767424583E-1,-6.071352959E-2,2.968741456E-1
6.866062151E0,-8.240652084E-2,-3.057174683E-1,-8.002519608E-2,3.265854208E-1
6.871078296E0,-4.771947861E-2,-3.178324699E-1,-6.590163708E-2,3.280817785E-1
6.876094442E0,-2.747488022E-2,-3.225350380E-1,-5.642652512E-2,3.285843461E-1
6.881110588E0,-2.392148972E-2,-3.127555847E-1,-4.917633533E-2,3.175005597E-1
6.886126734E0,-2.742815018E-2,-3.052339554E-1,-2.748966217E-2,3.076942516E-1
6.891142880E0,-5.453300476E-2,-2.928290367E-1,-5.333364010E-2,3.026006783E-1
6.896159026E0,-1.002473831E-1,-2.708358765E-1,-5.770850182E-2,2.945027691E-1
6.901175171E0,-1.265807152E-1,-2.608318329E-1,-5.709683895E-2,2.954927605E-1
6.906191317E0,-1.646285057E-1,-2.224464417E-1,-6.101036072E-2,2.833853003E-1
6.911207463E0,-2.046608925E-1,-2.103981972E-1,-6.016945839E-2,2.996228396E-1
6.916223609E0,-2.491598129E-1,-1.557359695E-1,-6.628370285E-2,3.012106138E-1
6.921239755E0,-2.957291603E-1,-1.276278496E-1,-6.480753422E-2,3.285492668E-1
6.926255901E0,-3.205842972E-1,-1.140756607E-1,-7.531261444E-2,3.485104559E-1
6.931271994E0,-3.215594292E-1,-9.354352951E-2,-7.363307476E-2,3.428887401E-1
6.936288140E0,-3.130369186E-1,-8.978796005E-2,-8.851087093E-2,3.374732056E-1
6.941304286E0,-3.165206909E-1,-5.766773224E-2,-8.906733990E-2,3.338321527E-1
6.946320432E0,-3.032207489E-1,-6.606721878E-2,-9.230828285E-2,3.237723259E-1
6.951336578E0,-3.161687851E-1,-6.730127335E-2,-8.366870880E-2,3.339050986E-1
6.956352724E0,-3.361406326E-1,-8.282661438E-2,-7.528722286E-2,3.542865209E-1
6.961368869E0,-3.346385956E-1,-9.591865540E-2,-6.695151329E-2,3.544938409E-1
6.966385015E0,-3.188791275E-1,-1.302676201E-1,-5.170559883E-2,3.483202833E-1
6.971401161E0,-3.197350502E-1,-1.308817863E-1,-3.175997734E-2,3.469427049E-1
6.976417307E0,-2.919888496E-1,-1.053075790E-1,-1.941478252E-2,3.110049972E-1
6.981433453E0,-2.928910255E-1,-1.178746223E-1,-2.208948135E-4,3.157208074E-1
6.986449599E0,-2.746934891E-1,-1.184167862E-1,8.968114853E-3,2.992648915E-1
6.991465744E0,-2.944626808E-1,-1.235117912E-1,2.741062641E-2,3.204914592E-1
6.996481890E0,-3.020172119E-1,-1.260471344E-1,4.292058945E-2,3.300673467E-1
7.001497984E0,-3.568882942E-1,-1.118130684E-1,7.724273205E-2,3.818872300E-1
7.006514130E0,-3.874287605E-1,-8.569812775E-2,6.834113598E-2,4.026359701E-1
7.011530276E0,-4.222517014E-1,-8.095455170E-2,9.483206272E-2,4.402763437E-1
7.016546421E0,-4.401049614E-1,-7.148504257E-2,7.811927795E-2,4.526644562E-1
7.021562567E0,-4.791359901E-1,-5.250310898E-2,7.355999947E-2,4.875848101E-1
7.026578713E0,-5.011758804E-1,-6.693315506E-2,5.686116219E-2,5.088128361E-1
7.031594859E0,-4.944806099E-1,-5.743169785E-2,3.549742699E-2,4.990686734E-1
7.036611005E0,-4.901309013E-1,-5.028963089E-2,1.423227787E-2,4.929096318E-1
7.041627151E0,-4.620876312E-1,-4.083347321E-2,-1.155602932E-2,4.640322115E-1
7.046643296E0,-4.341330528E-1,-3.602552414E-2,-3.719604015E-2,4.372103514E-1
7.051659442E0,-4.064102173E-1,-5.969905853E-2,-3.633940220E-2,4.123757928E-1
7.056675588E0,-3.456301689E-1,-4.034042358E-2,-6.623244286E-2,3.542235169E-1
7.061691734E0,-2.828674316E-1,-3.993940353E-2,-7.198917866E-2,2.946041101E-1
7.066707828E0,-2.490882874E-1,-2.280712128E-2,-5.842709541E-2,2.568635146E-1
7.071723974E0,-2.012071609E-1,-2.698373795E-2,-5.680537224E-2,2.108062951E-1
7.076740119E0,-1.558818817E-1,2.418041229E-3,-1.955425739E-2,1.571221721E-1
7.081756265E0,-1.226902008E-1,3.277301788E-3,8.017539978E-3,1.229955569E-1
7.086772411E0,-1.061372757E-1,2.584123611E-2,2.346050739E-2,1.117286274E-1
7.091788557E0,-8.245897293E-2,4.127550125E-2,6.009924412E-2,1.100684713E-1
7.096804703E0,-9.207773209E-2,3.770303726E-2,7.003724575E-2,1.216759777E-1
7.101820849E0,-8.497953415E-2,4.131078720E-2,9.652912617E-2,1.350776612E-1
7.106836994E0,-7.304239273E-2,3.796577454E-2,1.180313826E-1,1.439027395E-1
7.111853140E0,-8.480739594E-2,5.863380432E-2,1.253100634E-1,1.622739332E-1
7.116869286E0,-8.450603485E-2,6.266117096E-2,1.349691153E-1,1.711267201E-1
7.121885432E0,-8.898782730E-2,5.720090866E-2,1.424982548E-1,1.774726175E-1
7.126901578E0,-9.816408157E-2,6.136274338E-2,1.359378099E-1,1.785515650E-1
7.131917724E0,-1.260643005E-1,5.391454697E-2,1.224243641E-1,1.838116187E-1
7.136933869E0,-1.489229202E-1,4.897928238E-2,9.950482845E-2,1.856831095E-1
7.141950015E0,-1.595916748E-1,3.711080551E-2,7.430005074E-2,1.799088994E-1
7.146966109E0,-1.819696426E-1,2.545213699E-2,6.359481812E-2,1.944352412E-1
7.151982255E0,-2.041401863E-1,2.576303482E-2,4.100465775E-2,2.098054613E-1
7.156998401E0,-2.283964157E-1,1.429796219E-2,4.929995537E-2,2.340936565E-1
7.162014546E0,-2.192478180E-1,7.678031921E-3,6.720614433E-2,2.294454700E-1
7.167030692E0,-2.243819237E-1,5.905628204E-3,7.305932045E-2,2.360503938E-1
7.172046838E0,-2.056498528E-1,-5.228519440E-3,8.839225769E-2,2.239026364E-1
7.177062984E0,-1.893668175E-1,3.605842590E-2,1.106566191E-1,2.222721057E-1
7.182079130E0,-1.565837860E-1,3.430986404E-2,1.280652285E-1,2.051739544E-1
7.187095276E0,-1.429619789E-1,6.358337402E-2,1.382063627E-1,2.087629554E-1
7.192111421E0,-1.244940758E-1,9.762573242E-2,1.457934380E-1,2.151401522E-1
7.197127567E0,-8.940362930E-2,1.458439827E-1,1.723102331E-1,2.428050507E-1
7.202143713E0,-7.823371887E-2,1.439194679E-1,1.557190418E-1,2.260127165E-1
7.207159859E0,-7.662630081E-2,1.847419739E-1,1.628546715E-1,2.579202026E-1
7.212176005E0,-6.777381897E-2,1.778178215E-1,1.386617422E-1,2.354560403E-1
7.217192151E0,-7.081365585E-2,2.018365860E-1,1.524646282E-1,2.626747878E-1
7.222208244E0,-6.192779541E-2,2.043170929E-1,1.162495613E-1,2.430935762E-1
7.227224390E0,-4.121446609E-2,2.161884308E-1,1.083507538E-1,2.453078793E-1
7.232240536E0,-3.975439072E-2,2.041630745E-1,1.126257181E-1,2.365322916E-1
7.237256682E0,2.345180511E-2,1.970157623E-1,9.782612324E-2,2.212129023E-1
7.242272828E0,3.622865677E-2,2.017650604E-1,8.325886726E-2,2.212548173E-1
7.247288974E0,4.652261734E-2,1.899666786E-1,7.160794735E-2,2.082771976E-1
7.252305119E0,5.680465698E-2,1.688613892E-1,7.188355923E-2,1.921150278E-1
7.257321265E0,5.993938446E-2,1.409349442E-1,9.131145477E-2,1.783063938E-1
7.262337411E0,8.202743530E-2,1.322965622E-1,9.899938107E-2,1.844769849E-1
7.267353557E0,7.072353363E-2,1.094808578E-1,9.695661068E-2,1.624452548E-1
7.272369703E0,7.845735550E-2,5.355978012E-2,7.834899426E-2,1.231372063E-1
7.277385849E0,6.243467331E-2,2.655076981E-2,8.084917068E-2,1.055443992E-1
7.282401994E0,7.965707779E-2,-2.822399139E-3,6.417632103E-2,1.023318922E-1
7.287418140E0,6.104230881E-2,-1.557683945E-2,5.189311504E-2,8.161921821E-2
7.292434286E0,8.054113388E-2,-3.541898727E-2,3.959226608E-2,9.648277794E-2
7.297450380E0,7.602977753E-2,-6.005191803E-2,3.666150570E-2,1.035896999E-1
7.302466526E0,6.215620041E-2,-5.825233459E-2,4.790830612E-2,9.773399373E-2
7.307482671E0,5.064201355E-2,-8.512115479E-2,4.488170147E-2,1.087409383E-1
7.312498817E0,6.306028366E-2,-8.077335358E-2,4.661571980E-2,1.125786807E-1
7.317514963E0,4.204654694E-2,-6.701231003E-2,1.063680649E-2,7.982295069E-2
7.322531109E0,2.830934525E-2,-6.760549545E-2,-8.300662041E-3,7.376193486E-2
7.327547255E0,2.419662476E-2,-6.573772430E-2,-5.476951599E-3,7.026323395E-2
7.332563401E0,1.168727875E-3,-7.090616226E-2,-1.676619053E-2,7.287080977E-2
7.337579546E0,-9.690761566E-3,-5.449438095E-2,-1.764416695E-3,5.537744650E-2
7.342595692E0,-8.589744568E-3,-6.904983521E-2,-3.381133080E-3,6.966416234E-2
7.347611838E0,-7.669925690E-3,-6.939077377E-2,-2.299189568E-3,6.985122417E-2
7.352627984E0,-1.152324677E-2,-4.597234726E-2,-1.083254814E-3,4.740691268E-2
7.357644130E0,-2.727890015E-2,-2.993297577E-2,2.588987350E-3,4.058108287E-2
7.362660276E0,-3.584051132E-2,-4.491186142E-2,1.121342182E-2,5.854364506E-2
7.367676421E0,-3.005886078E-2,-4.787635803E-2,2.681410313E-2,6.256737885E-2
7.372692567E0,-4.572582245E-2,-5.795717239E-2,3.051328659E-2,7.988081953E-2
7.377708713E0,-5.643796921E-2,-5.602121353E-2,4.351449013E-2,9.064839538E-2
7.382724807E0,-5.770444870E-2,-6.853294373E-2,3.268384933E-2,9.536667019E-2
7.387740953E0,-6.609678268E-2,-8.337259293E-2,4.554486275E-2,1.157329186E-1
7.392757099E0,-6.260108948E-2,-8.629989624E-2,5.114233494E-2,1.182459594E-1
7.397773244E0,-6.139469147E-2,-9.863710403E-2,5.158817768E-2,1.271216996E-1
7.402789390E0,-3.883790970E-2,-1.084775925E-1,4.501140118E-2,1.237004347E-1
7.407805536E0,-3.081941605E-2,-1.160588264E-1,5.017471313E-2,1.301421893E-1
7.412821682E0,-1.342105865E-2,-1.212801933E-1,6.001663208E-2,1.359816393E-1
7.417837828E0,8.519172668E-3,-1.100120544E-1,4.570531845E-2,1.194328454E-1
7.422853974E0,1.592063904E-2,-1.037497520E-1,5.997216702E-2,1.208889516E-1
7.427870119E0,3.036975861E-2,-9.043693542E-2,4.799795151E-2,1.067940302E-1
7.432886265E0,2.560186386E-2,-7.262086868E-2,4.328095913E-2,8.833168981E-2
7.437902411E0,3.499555588E-2,-7.891607285E-2,3.129494190E-2,9.182488156E-2
7.442918557E0,2.531194687E-2,-7.805633545E-2,1.461970806E-2,8.334999713E-2
7.447934703E0,3.696823120E-2,-6.314182281E-2,-6.778836250E-3,7.348123929E-2
7.452950849E0,5.569219589E-2,-4.835128784E-2,-1.871907711E-2,7.609120558E-2
7.457966994E0,4.087257385E-2,-7.186269760E-2,-3.287589550E-2,8.896987751E-2
7.462983088E0,5.944585800E-2,-4.762220383E-2,-1.831889153E-2,7.834070537E-2
7.467999234E0,5.642318726E-2,-2.842807770E-2,-1.335573196E-2,6.457636749E-2
7.473015380E0,7.006788254E-2,-4.018592834E-2,1.206994057E-3,8.078288083E-2
7.478031526E0,6.453800201E-2,-2.575969696E-2,2.300822735E-2,7.319900421E-2
7.483047671E0,8.046293259E-2,-4.228448868E-2,4.181385040E-3,9.099310679E-2
7.488063817E0,5.342578888E-2,-5.641746521E-2,1.166558266E-2,7.857054866E-2
7.493079963E0,5.030107498E-2,-4.203987122E-2,2.613735199E-2,7.057414601E-2
7.498096109E0,3.531885147E-2,-4.446315765E-2,1.895344257E-2,5.986339986E-2
7.503112255E0,2.757167816E-2,-2.788305283E-2,1.423120499E-2,4.171557583E-2
7.508128401E0,3.419637680E-2,-2.571058273E-2,-9.853482246E-3,4.390350058E-2
7.513144546E0,1.459789276E-2,-3.079843521E-2,-5.416274071E-3,3.451055070E-2
7.518160692E0,9.508609772E-3,-1.678752899E-2,-2.029395103E-2,2.800141493E-2
7.523176838E0,-2.737998962E-3,-1.014661789E-2,-3.275620937E-2,3.440086838E-2
7.528192984E0,-3.161811829E-2,-1.086568832E-2,-3.806793690E-2,5.066494258E-2
7.533209130E0,-6.029415131E-2,9.827613831E-3,-2.639043331E-2,6.654638717E-2
7.538225276E0,-7.443094254E-2,-7.614135742E-3,-2.212512493E-2,7.802218545E-2
7.543241421E0,-8.137369156E-2,1.257419586E-3,-8.503198624E-4,8.138784815E-2
7.548257567E0,-5.502319336E-2,-4.107952118E-3,3.955364227E-2,6.788901012E-2
7.553273661E0,-2.883481979E-2,-2.590894699E-2,5.134463310E-2,6.433499604E-2
7.558289807E0,-2.415466309E-2,-2.608394623E-2,5.817627907E-2,6.817843828E-2
7.563305953E0,-2.195119858E-2,-5.475711823E-2,6.761753559E-2,8.973476603E-2
7.568322099E0,-1.500797272E-2,-6.896591187E-2,9.347224236E-2,1.171264118E-1
7.573338244E0,8.508205414E-3,-7.121467590E-2,9.045994282E-2,1.154422838E-1
7.578354390E0,5.705833435E-3,-8.766078949E-2,8.523631096E-2,1.224017943E-1
7.583370536E0,2.901315689E-2,-8.979225159E-2,8.708524704E-2,1.284065885E-1
7.588386682E0,2.600288391E-2,-8.718109131E-2,9.361910820E-2,1.305420625E-1
7.593402828E0,4.673528671E-2,-5.139112473E-2,1.000802517E-1,1.218248394E-1
7.598418974E0,4.592323303E-2,-5.387687683E-2,1.065461636E-1,1.279208590E-1
7.603435119E0,4.760360718E-2,-2.294492722E-2,1.153458357E-1,1.268748790E-1
7.608451265E0,2.796506882E-2,-1.827478409E-2,1.217834949E-1,1.262823521E-1
7.613467411E0,3.227615356E-2,-4.017353058E-3,1.307923794E-1,1.347758722E-1
7.618483557E0,1.765537262E-2,1.028871536E-2,1.327240467E-1,1.342879087E-1
7.623499703E0,7.014274597E-4,7.818698883E-3,1.325401068E-1,1.327723765E-1
7.628515849E0,-3.035163879E-2,1.019334793E-2,1.397376060E-1,1.433587279E-1
7.633531994E0,-5.401086807E-2,1.019859314E-2,1.421508789E-1,1.524075377E-1
7.638548088E0,-7.277870178E-2,-8.794307709E-3,1.400572062E-1,1.580825742E-1
7.643564234E0,-8.903789520E-2,-1.513481140E-3,9.772622585E-2,1.322136628E-1
7.648580380E0,-1.051902771E-1,-3.708982468E-2,8.416211605E-2,1.397279903E-1
7.653596526E0,-1.377639771E-1,-3.429174423E-2,7.309210300E-2,1.596787169E-1
7.658612671E0,-1.296896935E-1,-5.292224884E-2,7.139098644E-2,1.572159469E-1
7.663628817E0,-1.405944824E-1,-8.085060120E-2,7.419490814E-2,1.783494115E-1
7.668644963E0,-1.466317177E-1,-6.818580627E-2,5.546402931E-2,1.709573729E-1
7.673661109E0,-1.501803398E-1,-8.164215088E-2,4.642760754E-2,1.771301725E-1
7.678677255E0,-1.702570915E-1,-7.596445084E-2,3.725779057E-2,1.901215873E-1
7.683693401E0,-1.616854668E-1,-7.036781311E-2,3.045618534E-2,1.789452389E-1
7.688709546E0,-1.388897896E-1,-8.617019653E-2,9.263515472E-3,1.637116036E-1
7.693725692E0,-1.400594711E-1,-7.814788818E-2,-4.629850388E-3,1.604530567E-1
7.698741838E0,-1.268463135E-1,-7.482957840E-2,-6.787776947E-3,1.474297357E-1
7.703757984E0,-1.184964180E-1,-5.965900421E-2,-3.023624420E-2,1.360692042E-1
7.708774130E0,-9.828901291E-2,-5.634117126E-2,-2.713274956E-2,1.164956812E-1
7.713790276E0,-1.138391495E-1,-2.458095551E-2,-4.798185825E-2,1.259596525E-1
7.718806369E0,-6.274890900E-2,-4.282665253E-2,-3.280735016E-2,8.275185781E-2
7.723822515E0,-5.006456375E-2,-3.237247467E-2,-3.894734383E-2,7.121329406E-2
7.728838661E0,-4.931163788E-2,-1.950216293E-2,-1.630532742E-2,5.547824521E-2
7.733854807E0,-5.572652817E-2,-2.815055847E-2,-3.417098522E-2,7.117272030E-2
7.738870953E0,-3.595256805E-2,-1.767063141E-2,-4.464125633E-2,5.998066464E-2
7.743887099E0,-2.828502655E-2,2.136230469E-3,-4.309165478E-2,5.158969780E-2
7.748903244E0,-3.013467789E-2,-1.615858078E-2,-4.872548580E-2,5.952622540E-2
7.753919390E0,-1.774072647E-2,-3.672409058E-2,-5.439853668E-2,6.798965361E-2
7.758935536E0,-3.153848648E-2,-1.912212372E-2,-4.826354980E-2,6.074291716E-2
7.763951682E0,-2.862358093E-2,-4.441070557E-2,-4.685211182E-2,7.061685731E-2
7.768967828E0,-5.661725998E-2,-5.533599854E-2,-1.957082748E-2,8.155123635E-2
7.773983974E0,-7.481098175E-2,-7.800722122E-2,-2.123701572E-2,1.101490826E-1
7.779000119E0,-9.045171738E-2,-8.861875534E-2,-2.065634727E-2,1.283023057E-1
7.784016265E0,-8.460426331E-2,-6.598138809E-2,-8.440494537E-3,1.076227991E-1
7.789032411E0,-9.782505035E-2,-8.633995056E-2,-2.257335186E-2,1.324155722E-1
7.794048557E0,-1.014513969E-1,-1.018147469E-1,-4.851436615E-2,1.516979642E-1
7.799064703E0,-9.314680099E-2,-9.817218781E-2,-4.354774952E-2,1.421636785E-1
7.804080849E0,-7.537555695E-2,-8.737516403E-2,-5.758857727E-2,1.289664224E-1
7.809096994E0,-6.486797333E-2,-7.189083099E-2,-6.669902802E-2,1.175793599E-1
7.814113140E0,-4.495334625E-2,-4.463624954E-2,-5.187857151E-2,8.188152597E-2
7.819129286E0,-3.464269638E-2,-5.549335480E-2,-4.897689819E-2,8.172126648E-2
7.824145380E0,-1.257371902E-2,-1.639223099E-2,-5.543053150E-2,5.915528268E-2
7.829161526E0,1.167440414E-2,8.195877075E-3,-3.545272350E-2,3.821465317E-2
7.834177671E0,1.196479797E-2,1.592683792E-2,-4.417932034E-2,4.846269598E-2
7.839193817E0,3.137016296E-2,2.372360229E-2,-2.450191975E-2,4.633832649E-2
7.844209963E0,5.464076996E-3,4.565668106E-2,4.559874535E-3,4.620802007E-2
7.849226109E0,-1.252651215E-3,2.227401733E-2,2.389609814E-2,3.269135191E-2
7.854242255E0,6.320953369E-3,1.412391663E-3,4.295074940E-2,4.343634625E-2
7.859258401E0,-9.900569916E-3,-1.689624786E-2,5.469298363E-2,5.809326066E-2
7.864274546E0,-1.645469666E-2,2.962589264E-3,6.388366222E-2,6.603526540E-2
7.869290692E0,-3.001785278E-2,-2.715253830E-2,7.525098324E-2,8.544613684E-2
7.874306838E0,-2.692556381E-2,-4.051351547E-2,6.749904156E-2,8.320127123E-2
7.879322984E0,-2.850580215E-2,-3.233861923E-2,7.612705231E-2,8.748539960E-2
7.884339130E0,-3.256607056E-2,-2.673578262E-2,6.345033646E-2,7.616624069E-2
7.889355276E0,-3.176021576E-2,-3.534793854E-2,7.446849346E-2,8.833880564E-2
7.894371421E0,-4.875183105E-3,-2.732658386E-2,4.497587681E-2,5.285204907E-2
7.899387567E0,-1.147747040E-2,-2.180004120E-2,3.940463066E-2,4.647256223E-2
7.904403713E0,5.682945251E-3,-4.510879517E-3,2.907991409E-2,2.997140812E-2
7.909419807E0,3.700733185E-3,7.899761200E-3,9.431123734E-3,1.284709103E-2
7.914435953E0,1.826095581E-2,1.773691177E-2,2.093064785E-2,3.295682882E-2
7.919452099E0,3.498601913E-2,2.739048004E-2,3.716194630E-2,5.792469408E-2
7.924468244E0,4.435682297E-2,3.212308884E-2,3.915107250E-2,6.732181710E-2
7.929484390E0,3.222513199E-2,4.391479492E-2,5.319857597E-2,7.613840575E-2
7.934500536E0,3.214502335E-2,3.901815414E-2,8.582532406E-2,9.960775637E-2
7.939516682E0,3.432941437E-2,3.166723251E-2,8.743715286E-2,9.912909768E-2
7.944532828E0,2.698516846E-2,5.307674408E-3,8.882510662E-2,9.298532298E-2
7.949548974E0,2.677059174E-2,1.704263687E-2,7.820677757E-2,8.440033241E-2
7.954565119E0,2.660512924E-2,1.207494736E-2,6.036460400E-2,6.706357186E-2
7.959581265E0,1.937437057E-2,2.141284943E-2,6.620216370E-2,7.222605371E-2
7.964597411E0,3.117275238E-2,9.325027466E-3,6.031000614E-2,6.852731914E-2
7.969613557E0,3.582143784E-2,-1.442146301E-2,6.637561321E-2,7.679111950E-2
7.974629703E0,2.619695663E-2,-2.315044403E-3,7.249426842E-2,7.711717656E-2
7.979645849E0,1.433658600E-2,-2.098560333E-3,7.143878937E-2,7.289336239E-2
7.984661994E0,1.214170456E-2,-1.120615005E-2,6.591343880E-2,6.795277921E-2
7.989678140E0,9.958744049E-3,5.843639374E-3,6.747376919E-2,6.845461440E-2
7.994694286E0,1.489496231E-2,-5.742549896E-3,4.774391651E-2,5.034201372E-2
7.999710380E0,8.049011230E-4,-5.693435669E-4,5.915701389E-2,5.916522890E-2
8.004726526E0,2.471446991E-2,1.154851913E-2,7.052016258E-2,7.561260905E-2
8.009742671E0,2.473449707E-2,2.600336075E-2,6.750941277E-2,7.645581029E-2
8.014758817E0,3.662538528E-2,1.895523071E-2,7.871723175E-2,8.886575377E-2
8.019774963E0,3.414297104E-2,3.091096878E-2,7.318842411E-2,8.647413420E-2
8.024791109E0,4.578018188E-2,4.973554611E-2,7.738530636E-2,1.027518138E-1
8.029807255E0,5.023527145E-2,3.995704651E-2,7.439446449E-2,9.825825365E-2
8.034823401E0,6.173563004E-2,5.158472061E-2,9.047377110E-2,1.210692970E-1
8.039839546E0,4.936742783E-2,4.170989990E-2,1.016918421E-1,1.204910346E-1
8.044855692E0,3.949165344E-2,3.907823563E-2,9.388566017E-2,1.090926963E-1
8.049871838E0,2.972459793E-2,1.274681091E-2,1.169427633E-1,1.213327771E-1
8.054887984E0,1.762104034E-2,5.574703217E-3,1.113491058E-1,1.128725022E-1
8.059904130E0,-1.095008850E-2,1.513385773E-2,1.176068783E-1,1.190811316E-1
8.064920276E0,-1.562833786E-2,7.940769196E-3,1.193125248E-1,1.205934465E-1
8.069936421E0,-4.162359238E-2,-3.886699677E-3,9.977459908E-2,1.081785584E-1
8.074952567E0,-3.892278671E-2,-1.420021057E-3,9.214937687E-2,1.000425282E-1
8.079968713E0,-4.811477661E-2,3.409862518E-3,9.173369408E-2,1.036423153E-1
