"Time (s)","Linear Acceleration x (m/s^2)","Linear Acceleration y (m/s^2)","Linear Acceleration z (m/s^2)","Absolute acceleration (m/s^2)"
1.102361050E-1,8.507949114E-2,-8.020656109E-1,1.588922501E0,1.781915396E0
1.153501680E-1,7.719153166E-2,-7.361215949E-1,1.493434906E0,1.666787735E0
1.204642300E-1,8.371245861E-2,-7.001855969E-1,1.357063293E0,1.529342482E0
1.255782930E-1,7.859659195E-2,-6.285755634E-1,1.311468124E0,1.456445435E0
1.306923550E-1,5.314844847E-2,-5.841045976E-1,1.263052940E0,1.392589555E0
1.358064180E-1,4.510068893E-2,-5.354522467E-1,1.151770592E0,1.270951878E0
1.409204800E-1,4.197663069E-2,-5.146805644E-1,1.060144424E0,1.179221914E0
1.460345430E-1,5.068862438E-2,-4.419957399E-1,1.003290176E0,1.097506605E0
1.511486050E-1,1.975464821E-2,-4.390114546E-1,9.150352478E-1,1.015091527E0
1.562626680E-1,4.047769308E-2,-4.501623511E-1,8.377580643E-1,9.519050164E-1
1.613767300E-1,7.232642174E-2,-4.307290912E-1,8.010530472E-1,9.123840450E-1
1.664907930E-1,4.289174080E-2,-4.163630009E-1,7.640724182E-1,8.712086491E-1
1.716048550E-1,8.171182871E-2,-4.184098244E-1,6.942081451E-1,8.146585499E-1
1.767189180E-1,9.375351667E-2,-4.385100603E-1,6.735906601E-1,8.092003289E-1
1.818329800E-1,5.674076080E-2,-4.178698063E-1,6.147260666E-1,7.454681924E-1
1.869470430E-1,3.488492966E-2,-3.900799751E-1,5.534782410E-1,6.780247109E-1
1.920611050E-1,9.022736549E-2,-3.996813297E-1,5.293350220E-1,6.693890560E-1
1.971751680E-1,3.222745657E-2,-3.853353262E-1,5.365924835E-1,6.614026126E-1
2.022892300E-1,2.941989899E-2,-3.903398514E-1,6.396760941E-1,7.499441548E-1
2.074032930E-1,6.163138151E-2,-3.938833475E-1,7.801876068E-1,8.761479444E-1
2.125173550E-1,4.185962677E-2,-4.269787073E-1,9.362983704E-1,1.029911493E0
2.176314180E-1,6.247109175E-2,-4.546359777E-1,1.093679428E0,1.186056997E0
2.227454800E-1,2.903354168E-2,-4.770088196E-1,1.172950745E0,1.266567728E0
2.278595430E-1,4.544299841E-2,-4.591509104E-1,1.166556358E0,1.254487290E0
2.329736050E-1,5.720400810E-2,-4.301878214E-1,1.188753128E0,1.265491154E0
2.380876680E-1,2.660477161E-2,-4.322549105E-1,1.121808052E0,1.202499658E0
2.432017300E-1,3.908318281E-2,-4.102942944E-1,1.063684464E0,1.140742539E0
2.483157930E-1,1.606678963E-2,-3.877938986E-1,9.156932831E-1,9.945533863E-1
2.534298550E-1,3.354424238E-2,-3.545380831E-1,7.546901703E-1,8.344936918E-1
2.585439180E-1,2.022385597E-2,-2.958265543E-1,5.621013641E-1,6.355157733E-1
2.636579800E-1,5.856519938E-2,-2.659887075E-1,4.134731293E-1,4.951160508E-1
2.687014700E-1,3.742361069E-2,-2.404465675E-1,3.173036575E-1,3.998708411E-1
2.737160010E-1,6.162947416E-2,-2.499988079E-1,2.866086960E-1,3.852818976E-1
2.787304800E-1,4.067611694E-2,-2.546027899E-1,3.505954742E-1,4.351945699E-1
2.837449590E-1,6.483787298E-2,-3.114840984E-1,4.675531387E-1,5.655371172E-1
2.887594900E-1,5.096024275E-2,-3.409723043E-1,6.247177124E-1,7.135343572E-1
2.937739700E-1,4.225659370E-2,-4.555485249E-1,9.130764008E-1,1.021282817E0
2.987885010E-1,8.802753687E-2,-5.325449705E-1,1.226908684E0,1.340394685E0
3.038029800E-1,8.649116755E-2,-5.945570469E-1,1.420012474E0,1.541886582E0
3.088175110E-1,7.824718952E-2,-6.422157884E-1,1.546271324E0,1.676161910E0
3.138319900E-1,8.485031128E-2,-6.571751833E-1,1.606882095E0,1.738145237E0
3.188465220E-1,1.032408476E-1,-6.804986596E-1,1.617021561E0,1.757411684E0
3.238610010E-1,8.657115698E-2,-7.009379268E-1,1.685918808E0,1.827876027E0
3.288754800E-1,7.318079472E-2,-7.781914473E-1,1.822147369E0,1.982714905E0
3.338900110E-1,5.351066589E-2,-8.482643366E-1,1.914006233E0,2.094238677E0
3.389045430E-1,6.768631935E-2,-8.912517428E-1,1.997615814E0,2.188465227E0
3.439190220E-1,7.090681791E-2,-1.012660265E0,2.207707405E0,2.429913697E0
3.489335010E-1,7.971668243E-2,-1.139843941E0,2.507259369E0,2.755349071E0
3.539480320E-1,1.055565476E-1,-1.295243502E0,2.746684074E0,3.038596932E0
3.589625110E-1,1.391252279E-1,-1.431928396E0,2.894294739E0,3.232138115E0
3.639770430E-1,1.331626773E-1,-1.533911824E0,2.935368538E0,3.314665328E0
3.689915220E-1,1.424683928E-1,-1.656778336E0,2.985227585E0,3.417132633E0
3.740060530E-1,1.502321959E-1,-1.750307083E0,2.971156120E0,3.451653704E0
3.790205320E-1,1.306830645E-1,-1.806729794E0,2.717518806E0,3.265923923E0
3.840350630E-1,1.124394536E-1,-1.858019471E0,2.551712990E0,3.158499354E0
3.890495430E-1,1.588885188E-1,-2.014693737E0,2.588976860E0,3.284362586E0
3.940640740E-1,1.918767095E-1,-2.065235138E0,2.366531372E0,3.146821187E0
3.990785530E-1,1.471682191E-1,-2.045058727E0,1.857403755E0,2.766563282E0
4.040930840E-1,1.437637806E-1,-2.024353981E0,1.493373871E0,2.519690970E0
4.091075630E-1,1.057599187E-1,-2.035401344E0,1.287230492E0,2.410602856E0
4.141220950E-1,1.631508470E-1,-2.080285549E0,1.102748871E0,2.360140088E0
4.191365740E-1,1.611350775E-1,-2.156477213E0,1.143222809E0,2.446081943E0
4.241511050E-1,1.523098350E-1,-2.109192133E0,6.754121780E-1,2.219925978E0
4.291655840E-1,2.198550105E-1,-2.151618958E0,7.304248810E-1,2.282831766E0
4.341800630E-1,2.086774111E-1,-2.259354115E0,9.354257584E-1,2.454230761E0
4.391945950E-1,1.884817481E-1,-2.264393091E0,5.551767349E-1,2.339064481E0
4.442090740E-1,1.808209419E-1,-2.272481918E0,2.240686417E-1,2.290649916E0
4.492236050E-1,2.276899219E-1,-2.303740978E0,4.409475327E-1,2.356586498E0
4.542380840E-1,2.008449435E-1,-2.307140827E0,2.291765213E-1,2.327178413E0
4.592526150E-1,1.482820511E-1,-2.413927555E0,1.329517365E-1,2.422129223E0
4.642670950E-1,2.265714407E-1,-2.199712276E0,-5.421085358E-1,2.276829019E0
4.692816260E-1,1.570369005E-1,-2.083225012E0,-8.551998138E-1,2.257399778E0
4.742961050E-1,2.091387510E-1,-2.222552299E0,-2.506809235E-1,2.246401270E0
4.793106360E-1,3.008512259E-1,-2.361392021E0,1.226110458E-1,2.383635292E0
4.843251150E-1,1.214531660E-1,-2.421536207E0,-5.146980286E-2,2.425126309E0
4.893396470E-1,2.277253866E-1,-2.261077166E0,-5.709066391E-1,2.343131066E0
4.943541260E-1,2.073180676E-1,-2.223220825E0,-5.228757858E-1,2.293270744E0
4.993686570E-1,2.914258242E-1,-2.414191246E0,2.183332443E-1,2.441499086E0
5.043831360E-1,1.945539713E-1,-2.602690220E0,4.577674866E-1,2.649792199E0
5.093976680E-1,2.240151167E-1,-2.527935743E0,2.807950974E-2,2.537997312E0
5.144121470E-1,1.273994446E-1,-2.393739700E0,-4.882035255E-1,2.446336660E0
5.194266780E-1,3.469015360E-1,-2.601077557E0,4.797868729E-1,2.667609524E0
5.244411570E-1,3.435913324E-1,-2.754862785E0,2.480416298E-1,2.787265438E0
5.294556880E-1,1.907186508E-1,-2.869755745E0,3.605813980E-1,2.898601488E0
5.344701680E-1,2.314909697E-1,-2.951128960E0,6.472005844E-1,3.030118612E0
5.394846990E-1,3.641121387E-1,-3.141711712E0,8.515734673E-1,3.275378986E0
5.444991780E-1,2.792949677E-1,-3.448616982E0,1.197193623E0,3.661179774E0
5.495136570E-1,2.921921015E-1,-3.582685471E0,9.284844398E-1,3.712559058E0
5.545281880E-1,1.886016130E-1,-3.725589275E0,9.875874519E-1,3.858874835E0
5.595427200E-1,5.290402174E-1,-3.937351227E0,1.421075344E0,4.219250333E0
5.645571990E-1,4.315775633E-1,-4.143881321E0,1.167745590E0,4.326851206E0
5.695717300E-1,2.253036499E-1,-4.208264828E0,5.506255627E-1,4.250110952E0
5.745862090E-1,3.998577595E-1,-4.268117428E0,4.699134827E-1,4.312485511E0
5.796007400E-1,3.371362686E-1,-4.393494129E0,3.204674721E-1,4.418048317E0
5.846152200E-1,4.778083563E-1,-4.599108696E0,5.675837994E-1,4.658567697E0
5.896297510E-1,5.118893385E-1,-4.800409794E0,5.116982460E-1,4.854667855E0
5.946442300E-1,3.875815868E-1,-5.030983925E0,9.145219326E-1,5.128096051E0
5.996587610E-1,4.296379089E-1,-5.175277710E0,3.445916176E-1,5.204501080E0
6.046732400E-1,5.482776165E-1,-5.379995346E0,3.515686393E-1,5.419276592E0
6.096877720E-1,7.069278955E-1,-5.820684433E0,1.197548866E0,5.984499779E0
6.147022510E-1,3.712826967E-1,-6.099609375E0,9.318144321E-1,6.181534074E0
6.197167820E-1,5.615971088E-1,-6.389307976E0,8.922398090E-1,6.475703792E0
6.247312610E-1,8.812641501E-1,-6.681127548E0,9.122488499E-1,6.800462468E0
6.297457930E-1,5.266261101E-1,-6.807374954E0,-3.327212334E-1,6.835816868E0
6.347602720E-1,6.571560502E-1,-7.027915478E0,6.308674812E-2,7.058854721E0
6.397748030E-1,7.631051540E-1,-7.661485195E0,6.838929653E-1,7.729708562E0
6.447892820E-1,3.528468609E-1,-7.740245819E0,-1.299712658E-1,7.749374089E0
6.498038130E-1,8.886581063E-1,-7.913136005E0,-3.124840260E-1,7.969007525E0
6.548182930E-1,8.924477696E-1,-8.217415810E0,-3.789615631E-1,8.274418256E0
6.598327720E-1,5.542570353E-1,-8.474054337E0,-1.016138077E0,8.552738412E0
6.648473030E-1,8.593431115E-1,-8.536046028E0,-1.338943005E0,8.683047895E0
6.698618340E-1,7.465634346E-1,-8.793276787E0,-1.511077404E0,8.953347337E0
6.748763130E-1,5.799155235E-1,-9.029870987E0,-2.024775028E0,9.272248162E0
6.798908450E-1,8.303729296E-1,-8.952404022E0,-2.450366020E0,9.318763363E0
6.849053240E-1,9.336348176E-1,-9.304791451E0,-2.227208138E0,9.613078279E0
6.899198550E-1,7.082692385E-1,-9.503328323E0,-2.426956177E0,9.833870592E0
6.949343340E-1,8.771643639E-1,-9.484154701E0,-3.347076416E0,1.009561926E1
6.999488650E-1,9.506992102E-1,-9.502338409E0,-3.680272579E0,1.023438667E1
7.049633450E-1,6.730559468E-1,-9.521379471E0,-4.238368034E0,1.044382281E1
7.099778760E-1,8.175715208E-1,-9.104732513E0,-4.756104469E0,1.030461581E1
7.149923550E-1,8.580441475E-1,-8.508728981E0,-6.742057800E0,1.088990597E1
7.200068860E-1,7.622674704E-1,-8.177327156E0,-6.352462769E0,1.038284712E1
7.250213650E-1,6.889908314E-1,-7.843595028E0,-6.745030403E0,1.036784097E1
7.300358970E-1,5.877083540E-1,-7.470032692E0,-7.165041924E0,1.036747873E1
7.350503760E-1,9.030176401E-1,-6.812879086E0,-7.753190994E0,1.036063381E1
7.400649070E-1,7.770929337E-1,-7.153914452E0,-5.145120621E0,8.846164797E0
7.450793860E-1,3.784483075E-1,-7.227850914E0,-4.993947983E0,8.793438941E0
7.500939180E-1,7.771347761E-1,-6.906624794E0,-5.568171501E0,8.905612745E0
7.551083970E-1,8.448454142E-1,-6.433917999E0,-6.010951042E0,8.845371503E0
7.601229280E-1,-1.197550297E-1,-6.253293037E0,-6.298032761E0,8.875991873E0
7.651374070E-1,1.011376381E0,-6.007591248E0,-5.454070568E0,8.176852728E0
7.701519380E-1,3.441540599E-1,-5.600470066E0,-6.422904015E0,8.528622571E0
7.751664180E-1,4.256334901E-1,-4.982120991E0,-7.075368881E0,8.663921643E0
7.801809490E-1,3.009080887E-1,-4.551550865E0,-7.088862419E0,8.429657843E0
7.851954280E-1,5.370712876E-1,-3.947310925E0,-7.463604927E0,8.460207303E0
7.902099590E-1,6.994891763E-1,-3.429666996E0,-8.378266335E0,9.080046673E0
7.952244380E-1,4.887008667E-2,-1.977473259E0,-1.068372726E1,1.086530336E1
8.002389700E-1,5.752426386E-1,-1.771503448E0,-9.074046135E0,9.263230636E0
8.052534490E-1,5.117055774E-2,-8.296213150E-1,-8.824039459E0,8.863101169E0
8.102679800E-1,3.720933199E-1,-3.940753937E-1,-8.953966141E0,8.970354425E0
8.152824590E-1,1.767068803E-1,1.814622879E-1,-8.961339951E0,8.964918716E0
8.202969900E-1,2.038809657E-2,6.379899979E-1,-7.959347725E0,7.984902198E0
8.253114700E-1,-1.951429248E-2,1.003683090E0,-8.390076637E0,8.449919913E0
8.303260010E-1,3.179476261E-1,1.221170425E0,-7.193675995E0,7.303514375E0
8.353404800E-1,-2.110424042E-1,1.406829357E0,-6.571321487E0,6.723538788E0
8.403550110E-1,1.557177305E-1,9.929723740E-1,-5.987284184E0,6.071063666E0
8.453694900E-1,-2.353608608E-2,1.143918037E0,-5.446249962E0,5.565136213E0
8.503840220E-1,2.786600590E-2,1.390907288E0,-5.233333111E0,5.415087723E0
8.553985010E-1,1.771317720E-1,9.447736740E-1,-4.296447754E0,4.402662406E0
8.604130320E-1,1.216457486E-1,8.546128273E-1,-3.713135719E0,3.812156561E0
8.654275630E-1,-2.306163311E-2,8.235826492E-1,-3.146005630E0,3.252102650E0
8.704420430E-1,2.024378181E-1,7.156119347E-1,-3.356216431E0,3.437625669E0
8.754565220E-1,-1.775318384E-2,7.836694717E-1,-3.158997536E0,3.254799294E0
8.804710530E-1,6.935954094E-3,7.364053726E-1,-3.001967907E0,3.090979181E0
8.854855320E-1,-9.670293331E-2,6.603507996E-1,-2.894866467E0,2.970802332E0
8.905000630E-1,8.906623721E-2,5.938982964E-1,-2.699943066E0,2.765924898E0
8.955145430E-1,-9.937998652E-2,5.489664078E-1,-2.487239838E0,2.549039527E0
9.005290740E-1,6.862679124E-2,4.683418274E-1,-2.395504475E0,2.441822146E0
9.055436050E-1,8.136722445E-2,3.688421249E-1,-2.279321194E0,2.310404779E0
9.105580840E-1,1.708847880E-1,2.578353882E-1,-2.182532310E0,2.204342982E0
9.155725630E-1,1.105420589E-1,1.830062866E-1,-2.022378445E0,2.033648303E0
9.205870950E-1,1.059246063E-1,1.059083939E-1,-1.937766552E0,1.943547226E0
9.256015740E-1,1.491688192E-1,1.458978653E-2,-1.893181801E0,1.899105455E0
9.306161050E-1,8.859208226E-2,-4.099225998E-2,-1.905738354E0,1.908236777E0
9.356306360E-1,-2.615368366E-2,-9.115457535E-2,-1.772152424E0,1.774687968E0
9.406451150E-1,8.867153525E-2,-2.546319962E-1,-1.446676731E0,1.471588821E0
9.456596470E-1,1.653304696E-1,-3.863377571E-1,-1.220420837E0,1.290743215E0
9.506741260E-1,1.833823323E-2,-3.988947868E-1,-1.345227242E0,1.403242557E0
9.556886570E-1,2.438075840E-1,-4.523482323E-1,-1.500988007E0,1.586513806E0
9.607031360E-1,2.664247751E-1,-5.306496620E-1,-1.423001766E0,1.541916097E0
9.657176680E-1,1.610767245E-1,-5.823068619E-1,-1.459834576E0,1.579918979E0
9.707321470E-1,1.854460835E-1,-7.488379478E-1,-1.658490181E0,1.829135917E0
9.757466780E-1,2.891871333E-1,-8.388381004E-1,-1.905072689E0,2.101566203E0
9.807611570E-1,1.048148572E-1,-1.000875473E0,-1.527929306E0,1.829564383E0
9.857756880E-1,2.053329349E-1,-1.301445484E0,-9.379105568E-1,1.617281106E0
9.907901680E-1,2.985683978E-1,-1.560885429E0,-9.585843086E-1,1.855906864E0
9.958046990E-1,1.539465189E-1,-1.686669827E0,-7.893152237E-1,1.868575168E0
1.000819178E0,1.318261623E-1,-1.763582706E0,-8.234276772E-1,1.950803742E0
1.005833709E0,2.674225271E-1,-1.891820431E0,-3.790273666E-1,1.947860646E0
1.010848188E0,2.600987256E-1,-2.004260063E0,-4.474592209E-1,2.070007126E0
1.015862720E0,1.982564032E-1,-2.031398773E0,-3.239994049E-1,2.066606443E0
1.020877199E0,3.394005299E-1,-2.110750675E0,-3.044052124E-1,2.159426698E0
1.025891730E0,3.777312040E-1,-2.025350571E0,-7.186288834E-1,2.182006707E0
1.030906209E0,3.160050511E-1,-2.110835075E0,4.992389679E-2,2.134941756E0
1.035920740E0,1.643754840E-1,-2.206111431E0,-5.482101440E-2,2.212905847E0
1.040935220E0,3.213709891E-1,-2.152495861E0,-5.090112686E-1,2.235086176E0
1.045949751E0,1.514426470E-1,-2.039013863E0,-7.013101578E-1,2.161561552E0
1.050964230E0,2.113391757E-1,-1.929926634E0,-8.513097763E-1,2.119907874E0
1.055978761E0,2.445566058E-1,-2.239859581E0,-1.033477783E-1,2.255539767E0
1.060993240E0,2.058913708E-1,-2.551618099E0,8.261032104E-1,2.689905704E0
1.066007772E0,2.862987518E-1,-2.606013536E0,8.645868301E-1,2.760576736E0
1.071022251E0,3.308922052E-1,-2.431265116E0,5.243062973E-1,2.509070905E0
1.076036782E0,2.778784633E-1,-2.278765440E0,2.629814148E-1,2.310659559E0
1.081051261E0,1.893296242E-1,-2.219997883E0,-3.058176041E-1,2.248946579E0
1.086065793E0,3.342415094E-1,-2.232005119E0,-2.783594131E-1,2.273993888E0
1.091080272E0,3.876422644E-1,-2.376089096E0,6.186866760E-1,2.485727081E0
1.096094803E0,2.162981629E-1,-2.527674437E0,9.876928329E-1,2.722399692E0
1.101109334E0,2.240993977E-1,-2.514090300E0,8.714733124E-1,2.670268958E0
1.106123813E0,2.625395656E-1,-2.534622669E0,1.650367737E0,3.035943472E0
1.111138345E0,1.260811090E-1,-2.455927372E0,1.321394920E0,2.791694868E0
1.116152824E0,3.570085764E-1,-2.314997911E0,1.126919746E0,2.599349643E0
1.121167355E0,1.788704991E-1,-2.215684891E0,1.018962860E0,2.445309694E0
1.126181834E0,2.654901743E-1,-2.113319397E0,1.247855186E0,2.468551493E0
1.131196365E0,3.414699435E-1,-1.994920850E0,1.047370911E0,2.278880590E0
1.136210845E0,2.288163304E-1,-1.885437369E0,1.232517242E0,2.264139956E0
1.141225376E0,1.351536512E-1,-1.677019715E0,4.051189423E-1,1.730544132E0
1.146239855E0,3.083475828E-1,-1.512051821E0,6.912031174E-1,1.690899373E0
1.151254386E0,1.468722820E-1,-1.533082843E0,8.896923065E-1,1.778613750E0
1.156268865E0,1.304481626E-1,-1.655108690E0,1.645260811E0,2.337367031E0
1.161283397E0,2.827045918E-1,-1.742564917E0,2.059683800E0,2.712701924E0
1.166297876E0,1.452848911E-1,-1.640087128E0,1.870150089E0,2.491677114E0
1.171312407E0,1.269190907E-1,-1.397578478E0,1.616081238E0,2.140339371E0
1.176326886E0,2.628825307E-1,-1.250640273E0,1.777378559E0,2.189128333E0
1.181341418E0,1.711093187E-1,-1.367058039E0,2.021437168E0,2.446289906E0
1.186355897E0,1.502841115E-1,-1.482360363E0,2.274607182E0,2.719157110E0
1.191370428E0,2.811007500E-1,-1.428871274E0,2.473015785E0,2.869929934E0
1.196384907E0,1.866201758E-1,-1.377116680E0,2.648121834E0,2.990623127E0
1.201399438E0,8.918535709E-2,-1.306634426E0,2.588016987E0,2.900530895E0
1.206413918E0,2.367615104E-1,-1.156691194E0,2.241259575E0,2.533226206E0
1.211428449E0,1.235165596E-1,-1.096908808E0,2.076419830E0,2.351591926E0
1.216442928E0,9.822332859E-2,-1.033939600E0,2.166827679E0,2.402877672E0
1.221457459E0,1.627629399E-1,-9.323185086E-1,2.106185436E0,2.309053197E0
1.226471938E0,1.238099337E-1,-8.833056688E-1,2.050044060E0,2.235674049E0
1.231486470E0,1.225963831E-1,-8.319550157E-1,2.000766277E0,2.170309821E0
1.236500949E0,1.827279329E-1,-7.573717237E-1,1.927237511E0,2.078760652E0
1.241515480E0,1.300355792E-1,-6.696739197E-1,1.793660164E0,1.919007346E0
1.246529959E0,1.055566072E-1,-5.978547335E-1,1.733705044E0,1.836928322E0
1.251544490E0,1.165308952E-1,-5.513565540E-1,1.668301582E0,1.760909898E0
1.256559022E0,7.203102112E-2,-5.472260714E-1,1.668855667E0,1.757761098E0
1.261573501E0,1.012905836E-1,-4.928390980E-1,1.567963600E0,1.646711878E0
1.266587980E0,1.298717260E-1,-4.367132187E-1,1.384913445E0,1.457933589E0
1.271602511E0,9.592050314E-2,-4.259525537E-1,1.325055122E0,1.395137054E0
1.276617043E0,1.115218997E-1,-4.694136381E-1,1.430775642E0,1.509935507E0
1.281631522E0,1.576948166E-1,-5.336889625E-1,1.472256660E0,1.573922247E0
1.286646053E0,1.147343516E-1,-5.646782517E-1,1.404185295E0,1.517814825E0
1.291660532E0,1.264752150E-1,-5.465596318E-1,1.212362289E0,1.335868905E0
1.296675063E0,1.521285772E-1,-4.994918108E-1,9.995412827E-1,1.127704726E0
1.301689543E0,1.012098789E-1,-4.629335105E-1,7.774286270E-1,9.104647961E-1
1.306704074E0,4.785561562E-2,-4.498615861E-1,5.076942444E-1,6.800140090E-1
1.311718553E0,8.026027679E-2,-3.774596751E-1,2.642993927E-1,4.677303575E-1
1.316733084E0,5.781650543E-2,-3.412932158E-1,1.161890030E-1,3.651351693E-1
1.321747563E0,1.371812820E-2,-3.423532248E-1,1.846637726E-1,3.892231063E-1
1.326762095E0,8.619606495E-2,-4.078531563E-1,4.831590652E-1,6.381352843E-1
1.331776574E0,1.008266807E-1,-5.023397207E-1,6.910152435E-1,8.602402463E-1
1.336791105E0,1.177710891E-1,-4.874806702E-1,4.816074371E-1,6.953079582E-1
1.341805584E0,1.228301525E-1,-3.085171282E-1,-7.202243805E-2,3.397900769E-1
1.346820115E0,7.785624266E-2,-8.637611568E-2,-4.939193726E-1,5.074236637E-1
1.351834595E0,7.372701168E-2,4.204943776E-3,-6.247043610E-1,6.290539662E-1
1.356849126E0,6.733572483E-2,-1.913636923E-3,-7.825670242E-1,7.854609534E-1
1.361863605E0,3.250205517E-2,2.980396152E-2,-1.053193092E0,1.054115909E0
1.366878136E0,8.357530832E-2,6.388127804E-2,-8.327550888E-1,8.393727943E-1
1.371892615E0,3.918367624E-2,-6.573432684E-2,-1.708488464E-1,1.872049426E-1
1.376907147E0,6.840705872E-3,-2.042277455E-1,-8.041381836E-2,2.195954223E-1
1.381921626E0,9.876197577E-2,-2.349457145E-1,-3.232154846E-1,4.116086322E-1
1.386936157E0,5.910384655E-2,-1.551592350E-1,-2.969942093E-1,3.402546300E-1
1.391950688E0,3.132015467E-2,-1.611474752E-1,-8.142471313E-2,1.832469502E-1
1.396965168E0,1.036406159E-1,-2.300635576E-1,-2.328414917E-1,3.433449841E-1
1.401979647E0,8.075398207E-2,-2.398095131E-1,-5.567674637E-1,6.115715958E-1
1.406994178E0,1.729357243E-2,-2.160879374E-1,-3.846950531E-1,4.415691885E-1
1.412008709E0,2.782696486E-2,-1.991477013E-1,-1.836423874E-1,2.723209014E-1
1.417023188E0,5.993795395E-2,-2.515290976E-1,-2.256212234E-1,3.431681537E-1
1.422037720E0,1.444995403E-3,-3.146612644E-1,-2.714252472E-1,4.155544058E-1
1.427052199E0,3.352057934E-2,-3.186342716E-1,5.812358856E-2,3.256221427E-1
1.432066730E0,7.958889008E-2,-3.133389950E-1,8.214282990E-2,3.335613312E-1
1.437081209E0,5.661422014E-2,-2.505528927E-1,-3.959245682E-1,4.719514653E-1
1.442095740E0,4.601478577E-2,-1.133022308E-1,-7.445459366E-1,7.545219730E-1
1.447110220E0,6.397819519E-2,-5.167865753E-2,-5.896368027E-1,5.953448179E-1
1.452124751E0,4.395329952E-2,-7.267475128E-2,-4.506263733E-1,4.585603999E-1
1.457139230E0,2.641719580E-2,-1.325478554E-1,-5.702266693E-1,5.860249624E-1
1.462153761E0,4.509639740E-2,-2.948284149E-2,-9.877080917E-1,9.891765249E-1
1.467168240E0,2.559703588E-2,1.602463722E-1,-1.214631081E0,1.225423506E0
1.472182772E0,-3.851604462E-2,2.996256351E-1,-1.594840050E0,1.623198630E0
1.477197251E0,7.918357849E-3,3.599770069E-1,-1.795891762E0,1.831631340E0
1.482211782E0,-2.830028534E-4,3.440213203E-1,-1.808662415E0,1.841089481E0
1.487226261E0,1.623630524E-3,3.499982357E-1,-1.748209000E0,1.782901037E0
1.492240793E0,3.011912107E-2,3.332130909E-1,-1.695974350E0,1.728660499E0
1.497255272E0,3.025573492E-2,3.089916706E-1,-1.520901680E0,1.552267110E0
1.502269803E0,2.834433317E-2,2.280335426E-1,-1.271302223E0,1.291902489E0
1.507284282E0,4.588329792E-2,1.577403545E-1,-1.095429420E0,1.107679065E0
1.512298813E0,3.724926710E-2,1.290810108E-1,-1.014420509E0,1.023278254E0
1.517313293E0,4.316502810E-2,1.323614120E-1,-1.008810997E0,1.018372422E0
1.522327824E0,3.988879919E-2,1.438443661E-1,-1.002036095E0,1.013093605E0
1.527342303E0,3.441572189E-2,1.377344131E-1,-9.321804047E-1,9.429292218E-1
1.532356834E0,3.633540869E-2,1.072969437E-1,-8.210306168E-1,8.288088861E-1
1.537371313E0,4.314428568E-2,8.147478104E-2,-7.785396576E-1,7.839793159E-1
1.542385845E0,1.927483082E-2,6.323003769E-2,-6.472120285E-1,6.505789473E-1
1.547400376E0,1.686710119E-2,7.159113884E-2,-5.823783875E-1,5.870045796E-1
1.552414855E0,8.848869801E-2,5.176639557E-2,-5.600204468E-1,5.693267166E-1
1.557429386E0,7.402694225E-2,2.782225609E-2,-5.227603912E-1,5.287083248E-1
1.562443865E0,3.605163097E-2,3.562498093E-2,-4.730606079E-1,4.757680087E-1
1.567458397E0,2.700662613E-2,1.812458038E-2,-4.492530823E-1,4.504288958E-1
1.572472876E0,2.279180288E-2,6.488561630E-3,-4.083061218E-1,4.089932235E-1
1.577487407E0,-1.238888502E-2,-1.574277878E-3,-3.526983261E-1,3.529193563E-1
1.582501886E0,3.609693050E-2,-3.460431099E-2,-3.517227173E-1,3.552595060E-1
1.587516418E0,3.911352158E-2,-3.047323227E-2,-3.288307190E-1,3.325479322E-1
1.592530897E0,1.671314240E-3,-4.185652733E-2,-2.960071564E-1,2.989565166E-1
1.597545428E0,2.640241385E-2,-6.625771523E-2,-3.153409958E-1,3.233065355E-1
1.602559907E0,5.593675375E-2,-6.077933311E-2,-3.293552399E-1,3.395554767E-1
1.607574438E0,1.854062080E-2,-6.133604050E-2,-3.356561661E-1,3.417176119E-1
1.612588918E0,2.430284023E-2,-5.826735497E-2,-3.152208328E-1,3.214807710E-1
1.617603449E0,4.932034016E-2,-7.059240341E-2,-3.135175705E-1,3.251292826E-1
1.622617928E0,-1.951038837E-3,-6.492471695E-2,-2.898817062E-1,2.970697377E-1
1.627632459E0,1.844584942E-2,-6.992268562E-2,-2.968816757E-1,3.055620407E-1
1.632646938E0,3.153091669E-2,-5.684494972E-2,-3.058118820E-1,3.126442934E-1
1.637661470E0,-1.747226715E-2,-3.527808189E-2,-2.999725342E-1,3.025447809E-1
1.642675949E0,5.629062653E-4,-5.280876160E-2,-2.675504684E-1,2.727129174E-1
1.647690480E0,-1.964575052E-2,-6.874752045E-2,-2.563571930E-1,2.661412923E-1
1.652704959E0,-3.742223978E-2,-6.381630898E-2,-2.162828445E-1,2.285852449E-1
1.657719490E0,-4.077857733E-2,-7.374954224E-2,-1.785039902E-1,1.973969652E-1
1.662733970E0,-3.215456009E-2,-9.118938446E-2,-1.454620361E-1,1.746671793E-1
1.667748501E0,-2.605348825E-2,-7.532644272E-2,-1.172180176E-1,1.417495004E-1
1.672762980E0,2.783960104E-2,-9.557032585E-2,-9.851169586E-2,1.400474376E-1
1.677777511E0,5.100905895E-3,-1.134717464E-1,-6.787967682E-2,1.323234938E-1
1.682791990E0,8.800506592E-3,-1.360368729E-1,-2.305221558E-2,1.382565888E-1
1.687806522E0,3.622168303E-2,-1.441321373E-1,-4.044532776E-2,1.540191802E-1
1.692821053E0,1.099318266E-2,-1.353595257E-1,-1.726245880E-2,1.368979318E-1
1.697835532E0,-4.744827747E-3,-1.694400311E-1,1.028060913E-3,1.695095703E-1
1.702850063E0,1.062220335E-2,-1.768903732E-1,3.585624695E-2,1.808001819E-1
1.707864543E0,-4.094779491E-2,-1.744990349E-1,2.750587463E-2,1.813372775E-1
1.712879074E0,-2.795487642E-2,-1.980702877E-1,4.770088196E-2,2.056421361E-1
1.717893553E0,2.076715231E-2,-1.782488823E-1,4.620742798E-2,1.853080275E-1
1.722908084E0,-4.516303539E-3,-1.795322895E-1,6.601047516E-2,1.913364126E-1
1.727922563E0,-3.669202328E-3,-1.708071232E-1,9.513187408E-2,1.955469505E-1
1.732937095E0,-1.007002592E-2,-1.664068699E-1,8.578395844E-2,1.874874377E-1
1.737951574E0,-2.294003963E-3,-1.590583324E-1,9.772300720E-2,1.866938716E-1
1.742966105E0,1.262104511E-2,-1.704182625E-1,7.842540741E-2,1.880218591E-1
1.747980584E0,1.317965984E-2,-1.407454014E-1,7.810688019E-2,1.615043534E-1
1.752995115E0,-5.536794662E-3,-1.536881924E-1,8.716964722E-2,1.767746135E-1
1.758009595E0,-2.175748348E-2,-1.495559216E-1,5.787181854E-2,1.618317309E-1
1.763024126E0,-6.858944893E-3,-1.451370716E-1,3.807926178E-2,1.502060081E-1
1.768038605E0,-8.805572987E-3,-1.334688663E-1,3.024291992E-2,1.371353733E-1
1.773053136E0,1.554387808E-2,-1.194341183E-1,-8.613586426E-3,1.207489736E-1
1.778067615E0,1.579344273E-2,-1.101932526E-1,-3.780937195E-2,1.175650218E-1
1.783082147E0,-7.792234421E-3,-9.639859200E-2,-3.342437744E-2,1.023259325E-1
1.788096626E0,7.055342197E-3,-9.479618073E-2,-6.239700317E-2,1.137078702E-1
1.793111157E0,1.933681965E-2,-1.197340488E-1,-8.161640167E-2,1.461895758E-1
1.798125636E0,-1.146668196E-2,-1.042878628E-1,-7.918071747E-2,1.314421133E-1
1.803140168E0,-1.324784756E-2,-9.869337082E-2,-8.382892609E-2,1.301659547E-1
1.808154647E0,-1.753264666E-2,-1.125690937E-1,-9.069538116E-2,1.456188405E-1
1.813169178E0,-6.007117033E-2,-1.099677086E-1,-8.548927307E-2,1.516900071E-1
1.818183657E0,-4.538041353E-2,-1.075625420E-1,-8.498287201E-2,1.443993452E-1
1.823198188E0,-4.144132137E-3,-1.076934338E-1,-8.205604553E-2,1.354556906E-1
1.828212668E0,5.742371082E-3,-1.079013348E-1,-7.670402527E-2,1.325110575E-1
1.833227199E0,2.508074045E-2,-9.614634514E-2,-4.988670349E-2,1.111838406E-1
1.838241678E0,1.576602459E-2,-1.107184887E-1,-4.223442078E-2,1.195445422E-1
1.843256209E0,-1.037329435E-2,-1.180889606E-1,-3.459548950E-2,1.234886868E-1
1.848270688E0,-5.342960358E-4,-1.229455471E-1,-1.031494141E-2,1.233786490E-1
1.853285220E0,-2.896910906E-2,-1.444404125E-1,-1.954936981E-2,1.486082767E-1
1.858299751E0,-1.667821407E-2,-1.490516663E-1,-1.209926605E-2,1.504691140E-1
1.863314230E0,-3.798931837E-2,-1.368596554E-1,8.487701416E-5,1.420343648E-1
1.868328709E0,-4.723876715E-2,-1.436402798E-1,-1.410198212E-2,1.518647326E-1
1.873343240E0,-3.744018078E-2,-1.361012459E-1,-1.152229309E-2,1.416265494E-1
1.878357772E0,-1.585561037E-2,-1.474676132E-1,-2.813243866E-2,1.509620198E-1
1.883372251E0,-2.063226700E-2,-1.611635685E-1,-6.507873535E-3,1.626091592E-1
1.888386782E0,-1.587307453E-2,-1.629126072E-1,-1.639366150E-3,1.636922710E-1
1.893401261E0,-1.586729288E-2,-1.621177197E-1,-1.356697083E-2,1.634563817E-1
1.898415793E0,-1.602149010E-2,-1.557989120E-1,-2.286815643E-2,1.582812109E-1
1.903430272E0,-4.706120491E-2,-1.755905151E-1,-2.736854553E-2,1.838364036E-1
1.908444803E0,-2.019524574E-3,-1.453497410E-1,-3.420066833E-2,1.493328879E-1
1.913459282E0,-4.027146101E-2,-1.579971313E-1,-3.390598297E-2,1.665367820E-1
1.918473813E0,-3.567934036E-2,-1.421246529E-1,-2.169990540E-2,1.481327721E-1
1.923488293E0,-3.345447779E-2,-1.215343475E-1,-3.100967407E-2,1.298129408E-1
1.928502824E0,-2.172654867E-2,-1.154062748E-1,-3.072738647E-2,1.213870811E-1
1.933517303E0,-7.442146540E-2,-1.045577526E-1,-3.756713867E-2,1.337242239E-1
1.938531834E0,-1.984757185E-2,-9.848833084E-2,-3.013038635E-2,1.048890728E-1
1.943546313E0,-2.974879742E-2,-9.967398643E-2,-2.035236359E-2,1.059910997E-1
1.948560845E0,-5.146354437E-2,-1.080086231E-1,-2.726078033E-2,1.227090429E-1
1.953575324E0,-3.268706799E-2,-9.973311424E-2,-3.644943237E-2,1.111022034E-1
1.958589855E0,7.766485214E-5,-8.911895752E-2,-3.844738007E-2,9.705872272E-2
1.963604334E0,-3.875303268E-2,-1.023910046E-1,-3.565311432E-2,1.151384381E-1
1.968618865E0,-3.213566542E-2,-9.904146194E-2,-3.283977509E-2,1.091804149E-1
1.973633345E0,-1.597702503E-2,-9.586286545E-2,-5.136299133E-2,1.099232058E-1
1.978647876E0,-8.797186613E-2,-1.045258045E-1,-1.276683807E-2,1.372140124E-1
1.983662355E0,-7.608079910E-2,-8.705592155E-2,-7.720947266E-3,1.158733554E-1
1.988676886E0,-4.057025909E-2,-1.006472111E-1,-3.355789185E-2,1.135867031E-1
1.993691365E0,-5.787140131E-2,-8.800792694E-2,-6.933212280E-3,1.055583428E-1
1.998705897E0,-5.835503340E-2,-8.254241943E-2,-6.672859192E-3,1.013069000E-1
2.003720376E0,-4.190564156E-3,-9.366154671E-2,-1.119899750E-2,9.442173322E-2
2.008734907E0,-3.462433815E-4,-9.521722794E-2,-1.330471039E-2,9.614289209E-2
2.013749386E0,1.025795937E-3,-9.673190117E-2,1.216888428E-3,9.674499356E-2
2.018763918E0,-2.384901047E-3,-1.100196838E-1,-1.527976990E-2,1.111012599E-1
2.023778397E0,-1.054739952E-2,-8.043837547E-2,-7.907867432E-3,8.151143633E-2
2.028792928E0,-2.810448408E-2,-7.711505890E-2,-5.392074585E-3,8.225368565E-2
2.033807407E0,-9.061974287E-2,-9.761261940E-2,1.611614227E-2,1.341636736E-1
2.038821938E0,-3.645604849E-2,-9.657073021E-2,-1.240444183E-2,1.039654730E-1
2.043836418E0,-3.254190087E-2,-9.070491791E-2,-7.488250732E-3,9.665625352E-2
2.048850949E0,-2.858763933E-2,-6.827521324E-2,-2.422332764E-4,7.401902825E-2
2.053865428E0,-1.520857215E-2,-9.124946594E-2,-4.881858826E-3,9.263691622E-2
2.058879959E0,5.162924528E-3,-7.134675980E-2,-2.608013153E-2,7.613927491E-2
2.063894438E0,-5.508393049E-3,-8.247995377E-2,-2.810764313E-2,8.731165311E-2
2.068908970E0,-1.866763830E-2,-7.938337326E-2,-3.481101990E-2,8.866796364E-2
2.073923449E0,-7.910043001E-3,-7.396793365E-2,-8.213996887E-3,7.484179136E-2
2.078937980E0,-2.555927634E-2,-8.294606209E-2,-1.504325867E-2,8.808873625E-2
2.083952459E0,-1.941099763E-2,-1.013524532E-1,-2.418518066E-2,1.059907051E-1
2.088966990E0,-3.792792559E-3,-8.868002892E-2,-1.428508759E-2,8.990326207E-2
2.093981470E0,-7.423222065E-3,-5.234622955E-2,-6.848335266E-3,5.331164667E-2
2.098996001E0,-3.699123859E-2,-8.276581764E-2,2.882003784E-3,9.070191976E-2
2.104010480E0,2.615368366E-2,-9.871625900E-2,-2.781200409E-2,1.058414972E-1
2.109025011E0,-1.316377521E-2,-9.065485001E-2,-3.711700439E-3,9.168076967E-2
2.114039490E0,2.367547154E-2,-1.039967537E-1,-1.780605316E-2,1.081337517E-1
2.119054022E0,7.848471403E-3,-9.588241577E-2,-3.277778625E-3,9.625892161E-2
2.124068553E0,4.085570574E-3,-8.781313896E-2,6.365776062E-3,8.813831384E-2
2.129083032E0,-5.921828747E-2,-8.687949181E-2,-7.038116455E-4,1.051444103E-1
2.134097563E0,-5.052456260E-2,-7.402873039E-2,-1.724720001E-2,9.127130029E-2
2.139112043E0,-7.531684637E-2,-6.614184380E-2,1.625823975E-2,1.015465470E-1
2.144126522E0,-4.270455241E-2,-7.248401642E-2,-1.466464996E-2,8.539709241E-2
2.149141053E0,-2.946230769E-2,-8.829498291E-2,-1.920032501E-2,9.504043383E-2
2.154155584E0,-3.294962645E-2,-8.964800835E-2,-1.898574829E-2,9.738019266E-2
2.159170063E0,-4.131150246E-2,-7.916903496E-2,-1.399707794E-2,9.038968150E-2
2.164184595E0,-2.814313769E-2,-7.595610619E-2,-2.327823639E-2,8.428073656E-2
2.169199074E0,-4.141184688E-2,-8.467245102E-2,-1.109123230E-2,9.490722026E-2
2.174213605E0,-2.371069789E-2,-8.859801292E-2,-2.748584747E-2,9.574589756E-2
2.179228084E0,-3.469288349E-2,-6.396961212E-2,-3.663444519E-2,8.147263353E-2
2.184242615E0,-6.448802352E-2,-5.376791954E-2,-2.672767639E-2,8.811392078E-2
2.189257095E0,-9.886091948E-2,-7.934379578E-2,-1.924228668E-2,1.282153849E-1
2.194271626E0,-1.092263162E-1,-6.904315948E-2,-7.093429565E-3,1.294127612E-1
2.199286105E0,-1.005670428E-1,-5.410838127E-2,-4.529953003E-3,1.142889649E-1
2.204300636E0,-1.228554249E-1,-5.586147308E-2,-1.863098145E-2,1.362390292E-1
2.209315115E0,-6.178113818E-2,-6.712412834E-2,-2.548503876E-2,9.472087859E-2
2.214329647E0,-8.676019311E-2,-4.495000839E-2,-1.808071136E-2,9.937175900E-2
2.219344126E0,-8.784723282E-2,-3.245162964E-2,-1.548862457E-2,9.492176816E-2
2.224358657E0,-7.716393471E-2,-4.857492447E-2,-2.714729309E-2,9.513554346E-2
2.229373136E0,-2.626115084E-2,-6.702637672E-2,-3.867149353E-2,8.171699720E-2
2.234387668E0,-5.660459399E-2,-4.736089706E-2,-1.922416687E-2,7.626731425E-2
2.239402147E0,-6.288337708E-2,-5.872273445E-2,-1.418876648E-2,8.720091598E-2
2.244416678E0,-6.178480387E-2,-5.580139160E-2,-3.767108917E-2,9.137980222E-2
2.249431157E0,-4.436567426E-2,-5.773615837E-2,-2.530097961E-2,7.708382843E-2
2.254445688E0,-5.081054568E-2,-7.390236855E-2,-2.490711212E-2,9.307865418E-2
2.259460168E0,-3.825181723E-2,-6.141829491E-2,-4.352092743E-2,8.443624574E-2
2.264474699E0,-7.078173757E-2,-6.560254097E-2,-2.164745331E-2,9.890581373E-2
2.269489178E0,-7.717120647E-2,-6.503129005E-2,-9.435653687E-3,1.013582525E-1
2.274503709E0,-6.449857354E-2,-5.736923218E-2,-1.156044006E-2,8.709155277E-2
2.279518188E0,-5.204108357E-2,-8.300948143E-2,-2.791023254E-2,1.018716323E-1
2.284532720E0,-5.859890580E-2,-7.045054436E-2,-2.276229858E-2,9.442051259E-2
2.289547199E0,-4.861563444E-2,-6.508994102E-2,-2.241420746E-2,8.427678821E-2
2.294561730E0,-4.123392701E-2,-8.113884926E-2,-1.731872559E-2,9.264819400E-2
2.299576209E0,-6.717932224E-2,-8.761286736E-2,-1.461887360E-2,1.113678020E-1
2.304590740E0,-8.786696196E-2,-7.258152962E-2,-2.148628235E-2,1.159756085E-1
2.309605220E0,-7.541778684E-2,-7.426762581E-2,-3.304862976E-2,1.108861341E-1
2.314619751E0,-1.059009433E-1,-7.124567032E-2,-6.505012512E-3,1.278016843E-1
2.319634230E0,-1.239672601E-1,-8.487272263E-2,7.937431335E-3,1.504468791E-1
2.324648761E0,-8.524197340E-2,-6.983494759E-2,1.749420166E-2,1.115758084E-1
2.329663240E0,-6.823420525E-2,-6.436514854E-2,1.270198822E-2,9.465790837E-2
2.334677772E0,-4.676827788E-2,-5.653953552E-2,1.268863678E-2,7.446470571E-2
2.339692251E0,-3.717640042E-2,-3.442621231E-2,-6.371498108E-3,5.106706209E-2
2.344706782E0,-4.894694686E-2,-3.850865364E-2,-6.328582764E-3,6.260008763E-2
2.349721261E0,-3.005212545E-2,-5.213475227E-2,1.274776459E-2,6.151152852E-2
2.354735793E0,-2.521279454E-2,-4.185509682E-2,-1.110363007E-2,5.010813047E-2
2.359750272E0,-1.122966409E-2,-2.936887741E-2,-2.047157288E-2,3.751961636E-2
2.364764803E0,-4.508823156E-3,-3.595185280E-2,-3.452301025E-2,5.004701233E-2
2.369779282E0,-2.295926213E-3,-2.583622932E-2,-3.660869598E-2,4.486623056E-2
2.374793813E0,-1.452651620E-2,-3.968405724E-2,-1.962280273E-2,4.659290138E-2
2.379808293E0,-4.090870917E-2,-2.727746964E-2,-2.178478241E-2,5.377880233E-2
2.384822824E0,-4.799184203E-2,-2.932763100E-2,1.409721375E-2,5.798325859E-2
2.389837303E0,-5.746902525E-2,-1.237201691E-2,-4.922866821E-3,5.899144246E-2
2.394851834E0,-4.786147177E-2,-4.320096970E-2,-1.422309875E-2,6.602530425E-2
2.399866313E0,-3.379309177E-2,-4.296541214E-2,-2.341938019E-2,5.946820209E-2
2.404880845E0,-1.244202256E-2,-2.851343155E-2,-3.253746033E-2,4.501673054E-2
2.409895324E0,-3.240734339E-3,-3.794932365E-2,-1.782798767E-2,4.205342637E-2
2.414909855E0,-4.655916989E-2,-6.403756142E-2,-3.168106079E-2,8.527751864E-2
2.419924334E0,-6.083135307E-2,-7.315230370E-2,-2.649211884E-2,9.876003955E-2
2.424938865E0,-7.970583439E-2,-6.800150871E-2,-1.182842255E-2,1.054378338E-1
2.429953345E0,-1.055888534E-1,-3.898954391E-2,1.926040649E-2,1.141934926E-1
2.434967876E0,-1.003807038E-1,-3.625416756E-2,2.631282806E-2,1.099227696E-1
2.439982355E0,-1.239203066E-1,-1.678490639E-2,2.137851715E-2,1.268661360E-1
2.444996886E0,-1.066455096E-1,-2.820658684E-2,1.879501343E-2,1.119023181E-1
2.450011365E0,-9.687167406E-2,-2.995538712E-2,9.078979492E-3,1.018031155E-1
2.455025897E0,-1.012169570E-1,-5.382776260E-3,1.597404480E-2,1.026109973E-1
2.460040376E0,-7.731395960E-2,-9.506940842E-3,3.823280334E-3,7.799004902E-2
2.465054907E0,-7.017029822E-2,-8.793115616E-3,-2.724838257E-2,7.578696449E-2
2.470069386E0,-6.794081628E-2,-1.075267792E-3,-2.477550507E-2,7.232521254E-2
2.475083918E0,-1.012329161E-1,-5.996227264E-4,-2.467918396E-2,1.041994480E-1
2.480098397E0,-5.353079736E-2,-9.680986404E-3,-4.355430603E-2,6.968676587E-2
2.485112928E0,-1.084705889E-1,-1.404666901E-2,-2.899074554E-2,1.131531745E-1
2.490127407E0,-1.414053887E-1,-4.268407822E-3,-3.111362457E-2,1.448508229E-1
2.495141938E0,-1.218936443E-1,1.948070526E-2,-2.275466919E-3,1.234614764E-1
2.500156418E0,-1.022824645E-1,1.211309433E-2,2.241134644E-4,1.029974749E-1
2.505170949E0,-4.483683407E-2,1.187348366E-2,-4.398345947E-3,4.659041480E-2
2.510185428E0,3.824570775E-2,1.638340950E-2,-2.322959900E-2,4.765253968E-2
2.515199959E0,4.456196353E-2,1.842737198E-2,8.506774902E-4,4.822924718E-2
2.520214438E0,8.171689510E-2,1.333141327E-2,-1.088428497E-2,8.350955146E-2
2.525228970E0,7.575269043E-2,-1.220941544E-3,-1.302623749E-2,7.687420679E-2
2.530243449E0,5.563534796E-3,-2.285861969E-2,-1.511859894E-2,2.796500398E-2
2.535257980E0,-7.088550180E-2,-8.649349213E-3,8.894920349E-3,7.196308231E-2
2.540272459E0,-9.425568581E-2,-1.584529877E-2,3.266906738E-2,1.010073055E-1
2.545286990E0,-9.612269700E-2,-1.337647438E-2,1.583671570E-2,9.833262179E-2
2.550301470E0,-7.909767330E-2,-1.562118530E-2,1.573944092E-2,8.214738798E-2
2.555316001E0,-4.303826392E-2,3.709793091E-3,2.030658722E-2,4.773271635E-2
2.560330480E0,2.210021019E-3,-1.030349731E-2,3.905487061E-2,4.045156570E-2
2.565345011E0,4.010728374E-2,-2.805948257E-3,1.727104187E-2,4.375793005E-2
2.570359490E0,6.098774076E-2,1.404285431E-2,9.947776794E-3,6.336927128E-2
2.575374022E0,4.616826400E-2,1.173019409E-2,1.693725586E-2,5.055666811E-2
2.580388501E0,2.401429042E-2,2.204656601E-3,2.549171448E-3,2.424963774E-2
2.585403032E0,2.629461884E-2,-4.786252975E-3,-1.413440704E-2,3.023403149E-2
2.590417511E0,-7.095223293E-3,2.389431000E-3,-9.256362915E-3,1.190511774E-2
2.595432043E0,-5.458123237E-2,-4.905462265E-3,-1.147365570E-2,5.598945670E-2
2.600446522E0,-8.012006432E-2,-2.642869949E-3,-8.927345276E-3,8.065920258E-2
2.605461053E0,-4.346468300E-2,-5.176067352E-3,-4.018783569E-3,4.395589793E-2
2.610475532E0,-4.763102904E-2,4.155397415E-3,1.510429382E-2,5.014102060E-2
2.615490063E0,7.520537823E-3,1.349043846E-2,1.029014587E-2,1.855902802E-2
2.620504543E0,3.869423270E-2,-8.007764816E-3,1.971149445E-2,4.415779608E-2
2.625519074E0,1.516270824E-2,3.019022942E-2,1.948738098E-2,3.900148319E-2
2.630533553E0,-1.307344530E-2,3.963446617E-2,5.722713470E-2,7.082902532E-2
2.635548084E0,-3.146638628E-3,4.919075966E-2,6.132984161E-2,7.868279128E-2
2.640562563E0,-1.201446354E-2,5.400085449E-2,6.536293030E-2,8.563149115E-2
2.645577095E0,3.218460828E-3,3.988647461E-2,4.794883728E-2,6.245302509E-2
2.650591574E0,-1.265702210E-2,8.297801018E-2,4.250049591E-2,9.408423106E-2
2.655606105E0,-4.707236215E-2,8.783316612E-2,2.518177032E-2,1.027842104E-1
2.660620584E0,-3.639369458E-2,8.069515228E-2,2.228450775E-2,9.128421492E-2
2.665635115E0,-3.972478956E-2,7.841920853E-2,-6.730079651E-3,8.816419423E-2
2.670649595E0,4.575911909E-3,7.127690315E-2,-2.594661713E-2,7.599054437E-2
2.675664126E0,5.571929738E-2,8.545207977E-2,-4.258537292E-2,1.105450678E-1
2.680678605E0,2.581645548E-2,7.797813416E-2,-3.290176392E-2,8.848505438E-2
2.685693136E0,1.549248025E-2,8.224463463E-2,-2.084159851E-2,8.624713965E-2
2.690707615E0,-2.090836689E-2,7.681536674E-2,-3.492927551E-2,8.693569268E-2
2.695722147E0,-4.046895355E-2,4.981756210E-2,1.055526733E-2,6.504567137E-2
2.700736626E0,-4.513352364E-2,4.433012009E-2,5.842208862E-3,6.353208566E-2
2.705751157E0,-4.047719389E-2,5.779886246E-2,-2.016735077E-2,7.338823996E-2
2.710765636E0,-2.381748706E-2,5.928516388E-2,1.101970673E-2,6.483392077E-2
2.715780168E0,-6.171477959E-2,2.749371529E-2,3.958415985E-2,7.830404913E-2
2.720794647E0,1.230149344E-2,1.029300690E-2,-5.722999573E-3,1.703013376E-2
2.725809178E0,2.407824993E-2,1.220154762E-2,-5.531311035E-3,2.755422447E-2
2.730823657E0,4.532279074E-2,2.370142937E-2,4.109382629E-3,5.131081894E-2
2.735838188E0,4.711323231E-2,6.641149521E-3,-7.712364197E-3,4.820002166E-2
2.740852668E0,5.130181462E-2,-7.821083069E-3,-4.768371582E-4,5.189675228E-2
2.745867199E0,8.148163557E-3,-2.868652344E-3,1.822471619E-3,8.828541127E-3
2.750881678E0,-2.294651419E-2,2.108979225E-2,2.544593811E-2,4.023453264E-2
2.755896157E0,-7.982828468E-2,1.881623268E-2,3.696441650E-2,8.996095672E-2
2.760910688E0,-1.144815460E-1,2.152776718E-2,1.743602753E-2,1.177857554E-1
2.765925220E0,-9.674412012E-2,4.089117050E-2,1.229000092E-2,1.057476086E-1
2.770939699E0,-1.028727740E-1,5.542731285E-2,2.377223969E-2,1.192481196E-1
2.775954230E0,-6.864023209E-2,5.799865723E-2,-2.840042114E-3,8.990768343E-2
2.780968709E0,-5.586148798E-2,4.152822495E-2,-2.209663391E-2,7.302986059E-2
2.785983188E0,-5.508730561E-2,3.933095932E-2,-3.402423859E-2,7.575740499E-2
2.790997720E0,-8.047837764E-2,4.885864258E-2,-2.441596985E-2,9.726292102E-2
2.796012199E0,-4.374281317E-2,2.490520477E-2,-6.704902649E-2,8.384077100E-2
2.801026730E0,-6.929055601E-2,3.193187714E-2,-5.231380463E-2,9.250708127E-2
2.806041209E0,-5.878290161E-2,1.736879349E-2,-6.849575043E-2,9.191720370E-2
2.811055740E0,-8.158830553E-2,1.231241226E-2,-5.838012695E-2,1.010766359E-1
2.816070220E0,-9.482192248E-2,9.593009949E-3,-4.831600189E-2,1.068534457E-1
2.821084751E0,-9.346587211E-2,2.831768990E-2,-4.547882080E-2,1.077315365E-1
2.826099230E0,-4.709440470E-2,2.551913261E-2,-5.453777313E-2,7.644264374E-2
2.831113761E0,-6.067468598E-2,2.509140968E-2,-3.977108002E-2,7.676415286E-2
2.836128240E0,-5.274716392E-2,3.888440132E-2,-6.122589111E-3,6.581600159E-2
2.841142772E0,-3.511133045E-2,2.666521072E-2,-1.083087921E-2,4.539985609E-2
2.846157251E0,-4.619855061E-2,2.639174461E-2,-1.074028015E-2,5.427876086E-2
2.851171782E0,-1.000289619E-1,7.153749466E-3,1.070404053E-2,1.008540819E-1
2.856186261E0,-9.400233626E-2,4.804372787E-3,1.055622101E-2,9.471512563E-2
2.861200793E0,-5.014896765E-2,4.930496216E-3,-1.574134827E-2,5.279222286E-2
2.866215272E0,-7.761193812E-2,-2.039670944E-3,9.059906006E-4,7.764402112E-2
2.871229803E0,-7.171739638E-2,5.176067352E-4,3.178596497E-3,7.178966733E-2
2.876244282E0,-1.362914592E-2,7.617473602E-4,-3.258895874E-2,3.533233801E-2
2.881258813E0,-1.533555984E-2,-6.118774414E-3,-3.956699371E-2,4.287383570E-2
2.886273293E0,-6.441713125E-2,-3.445625305E-3,-1.324844360E-2,6.585560257E-2
2.891287824E0,3.092147410E-3,1.385927200E-3,-2.505588531E-2,2.528397830E-2
2.896302303E0,3.669133037E-2,-2.002048492E-2,-3.673171997E-2,5.564434197E-2
2.901316834E0,2.740525454E-2,-1.038575172E-2,-2.456855774E-2,3.824298426E-2
2.906331313E0,3.948181868E-2,-1.504945755E-2,-1.489257812E-2,4.480054756E-2
2.911345845E0,3.013230860E-2,8.845090866E-3,-4.092216492E-2,5.158309060E-2
2.916360324E0,1.136955619E-2,-7.557868958E-4,-3.584671021E-2,3.761415497E-2
2.921374855E0,-1.922134310E-2,-3.644633293E-2,-3.079319000E-2,5.143943784E-2
2.926389334E0,3.599828482E-2,-3.142523766E-2,-4.004859924E-2,6.234831492E-2
2.931403865E0,-2.793394029E-2,-1.921463013E-2,-3.977680206E-2,5.226567720E-2
2.936418345E0,-9.624589980E-2,-7.133483887E-3,4.122257233E-2,1.049450346E-1
2.941432876E0,-5.692144483E-2,-3.316640854E-2,4.816055298E-4,6.588090377E-2
2.946447355E0,-3.695681691E-2,-1.616597176E-2,-6.717681885E-3,4.089342501E-2
2.951461886E0,-9.083925188E-2,5.495309830E-3,2.737998962E-3,9.104649774E-2
2.956476365E0,-6.347377598E-2,1.281404495E-2,1.208019257E-2,6.587147363E-2
2.961490897E0,-3.639104962E-2,-1.324820518E-2,1.662826538E-2,4.214644283E-2
2.966505376E0,-3.099068999E-2,-3.482341766E-3,-4.976272583E-3,3.158026059E-2
2.971519907E0,-6.826484203E-2,-1.044416428E-2,4.475593567E-3,6.920404730E-2
2.976534386E0,-5.310961604E-2,-5.369663239E-3,-1.943778992E-2,5.680926224E-2
2.981548918E0,-4.494963586E-2,1.873898506E-2,-5.980205536E-2,7.712266302E-2
2.986563397E0,-6.301224977E-2,-2.572059631E-3,-4.517841339E-2,7.757736879E-2
2.991577876E0,-1.024674624E-1,2.408981323E-3,-1.880931854E-2,1.042073630E-1
2.996592407E0,1.290564239E-2,2.654790878E-3,-6.627845764E-2,6.757542059E-2
3.001606886E0,-3.656948358E-2,5.038189888E-2,-5.399990082E-2,8.241148071E-2
3.006621418E0,-6.200034916E-2,3.349947929E-2,-2.753543854E-2,7.566015322E-2
3.011635897E0,-7.988949120E-2,3.820657730E-2,-2.268981934E-2,9.141608860E-2
3.016650428E0,-1.046583727E-1,4.996991158E-2,-6.000518799E-3,1.161308455E-1
3.021664907E0,-1.554501057E-1,4.015970230E-2,6.757259369E-2,1.741941229E-1
3.026679438E0,-1.198797673E-1,1.135468483E-2,3.611373901E-2,1.257151129E-1
3.031693918E0,-3.030556440E-2,-1.022386551E-2,-1.402378082E-2,3.492307387E-2
3.036708449E0,7.031077147E-2,1.842641830E-2,-2.821445465E-2,7.796917934E-2
3.041722928E0,-9.549605101E-2,5.401635170E-2,2.417087555E-2,1.123454193E-1
3.046737459E0,-9.361285716E-2,3.950572014E-2,1.199722290E-2,1.023132558E-1
3.051751938E0,7.403042912E-2,3.687787056E-2,-8.788108826E-2,1.206796066E-1
3.056766470E0,4.584386945E-2,1.773142815E-2,-5.637645721E-2,7.479551349E-2
3.061780949E0,5.102388561E-2,2.016901970E-2,-5.364990234E-2,7.673681176E-2
3.066795480E0,1.438399553E-1,3.688526154E-2,-1.127014160E-1,1.864190560E-1
3.071809959E0,-1.074065268E-2,5.109143257E-2,-3.830432892E-2,6.475274292E-2
3.076824490E0,-1.948222518E-1,2.473449707E-2,4.975318909E-2,2.025904365E-1
3.081838970E0,-1.469922513E-1,4.133486748E-2,1.599693298E-2,1.535291343E-1
3.086853501E0,-1.446738839E-1,4.358053207E-2,3.711509705E-2,1.555870364E-1
3.091867980E0,-2.181474566E-1,4.340362549E-2,7.706642151E-2,2.353963060E-1
3.096882511E0,-2.482350916E-1,6.713438034E-2,6.201076508E-2,2.645241401E-1
3.101896990E0,-1.426487863E-1,6.944036484E-2,6.364154816E-2,1.709411804E-1
3.106911522E0,-9.490606189E-2,6.443953514E-2,5.108547211E-2,1.255760317E-1
3.111926001E0,3.810392320E-2,4.763627052E-2,-3.497409821E-2,7.031579323E-2
3.116940532E0,1.176027954E-1,4.273271561E-2,-4.667282104E-2,1.335472002E-1
3.121955011E0,1.420367807E-1,4.739427567E-2,-6.303119659E-2,1.624610605E-1
3.126969543E0,2.612617612E-2,5.196166039E-2,-5.074214935E-2,7.718391639E-2
3.131984022E0,1.327288151E-2,4.456830025E-2,-4.090595245E-2,6.193383338E-2
3.136998501E0,1.488527656E-2,3.729009628E-2,-8.102989197E-2,9.043210786E-2
3.142013032E0,-1.661020517E-1,6.347346306E-2,9.696006775E-3,1.780808374E-1
3.147027511E0,-1.697932482E-1,1.156113148E-1,4.503631592E-2,2.102950142E-1
3.152042043E0,-7.838683575E-2,1.342978477E-1,3.488349915E-2,1.593651983E-1
3.157056522E0,-1.489191353E-1,1.649198532E-1,6.983470917E-2,2.329213461E-1
3.162071053E0,-1.950990856E-1,2.097246647E-1,1.139116287E-1,3.082595454E-1
3.167085532E0,-3.435185552E-2,2.258043289E-1,4.122829437E-2,2.320935527E-1
3.172100063E0,-4.083921015E-2,2.156121731E-1,3.089523315E-2,2.216099404E-1
3.177114543E0,-9.452097118E-2,2.055587769E-1,5.386638641E-2,2.325730258E-1
3.182129074E0,6.114529073E-2,2.264013290E-1,-1.678466797E-3,2.345189238E-1
3.187143553E0,7.320939004E-2,2.065744400E-1,-6.857204437E-2,2.296404566E-1
3.192158084E0,-5.044698715E-3,1.843469143E-1,-1.205816269E-1,2.203387450E-1
3.197172563E0,1.264309883E-2,1.931700706E-1,-1.602821350E-1,2.513262560E-1
3.202187095E0,-2.430221438E-2,2.016773224E-1,-1.425676346E-1,2.481730655E-1
3.207201574E0,-1.579558551E-1,1.837530136E-1,-1.035242081E-1,2.635004437E-1
3.212216105E0,-1.715622544E-1,1.824619770E-1,-1.098537445E-1,2.734845981E-1
3.217230584E0,-8.280999959E-2,2.214035988E-1,-8.045768738E-2,2.497007990E-1
3.222245115E0,-6.652250886E-3,2.123458385E-1,-4.172897339E-2,2.165093873E-1
3.227259595E0,1.197765768E-2,1.747083664E-1,-2.936840057E-2,1.775640181E-1
3.232274126E0,4.720376432E-2,1.751801968E-1,-7.532119751E-3,1.815847723E-1
3.237288605E0,-6.623566151E-4,1.853370667E-1,2.116775513E-2,1.865431340E-1
3.242303084E0,4.078537226E-3,2.240347862E-1,4.007434845E-2,2.276272684E-1
3.247317615E0,1.599572599E-2,2.604188919E-1,2.779960632E-2,2.623865100E-1
3.252332095E0,8.959665895E-3,2.587618828E-1,-8.217811584E-3,2.590473316E-1
3.257346626E0,-5.962925404E-2,2.622237206E-1,-3.696060181E-2,2.714461524E-1
3.262361105E0,-1.750520617E-1,2.945575714E-1,-5.851364136E-2,3.476078730E-1
3.267375636E0,-2.181563079E-1,3.626992702E-1,-6.346130371E-2,4.279839628E-1
3.272390115E0,-2.016519904E-1,3.735704422E-1,-8.035850525E-2,4.320600536E-1
3.277404647E0,-2.062989473E-1,3.298299313E-1,-1.161394119E-1,4.059992638E-1
3.282419126E0,-1.348657459E-1,3.388235569E-1,-1.208152771E-1,3.841698886E-1
3.287433657E0,-1.183730140E-1,4.071788788E-1,-8.987522125E-2,4.334563013E-1
3.292448136E0,-1.185320914E-1,4.348227978E-1,-9.964466095E-2,4.615731585E-1
3.297462668E0,-9.256743640E-2,4.764266014E-1,-1.116838455E-1,4.980203993E-1
3.302477147E0,-3.144202381E-2,5.035479069E-1,-1.592855453E-1,5.290755904E-1
3.307491678E0,-8.644022048E-3,4.900536537E-1,-1.803627014E-1,5.222623926E-1
3.312506157E0,-6.424631923E-2,4.861950874E-1,-1.894035339E-1,5.257251670E-1
3.317520636E0,-1.217660159E-1,5.204937458E-1,-1.936798096E-1,5.685530500E-1
3.322535168E0,-1.810280085E-1,5.474376678E-1,-2.050657272E-1,6.119731142E-1
3.327549647E0,-2.441751957E-1,5.026595592E-1,-2.447309494E-1,6.100667146E-1
3.332564178E0,-3.070265055E-1,3.867001534E-1,-2.958030701E-1,5.755881687E-1
3.337578657E0,-2.766024172E-1,4.377872944E-1,-2.799272537E-1,5.886644882E-1
3.342593188E0,-2.273289710E-1,4.457945824E-1,-2.950839996E-1,5.809353127E-1
3.347607668E0,-2.457110435E-1,7.214896679E-1,8.183193207E-2,7.665622759E-1
3.352622199E0,6.682527661E-1,2.856512070E-1,-9.643907547E-1,1.207562793E0
3.357636678E0,-1.175246000E0,1.881959438E-1,-1.948165894E-2,1.190378263E0
3.362651209E0,4.472816288E-1,1.033922195E0,-9.852600098E-2,1.130824184E0
3.367665688E0,2.814524770E-1,1.643960476E-1,-9.062604904E-1,9.630937824E-1
3.372680220E0,-8.110746741E-1,8.641932011E-1,3.440475464E-1,1.234115363E0
3.377694699E0,-1.763276607E-1,7.579863071E-1,-3.045558929E-2,7.788210505E-1
3.382709230E0,1.348425597E-1,3.424735069E-1,-5.541210175E-1,6.652223093E-1
3.387723709E0,-1.629241228E0,6.548910141E-1,2.963075638E-1,1.780760341E0
3.392738240E0,8.811954260E-1,7.852780819E-1,-7.339782715E-1,1.389924871E0
3.397752720E0,-9.458093643E-1,7.514510155E-1,-2.151393890E-1,1.226995900E0
3.402767251E0,-5.370965600E-1,7.254884243E-1,-8.305740356E-2,9.064792887E-1
3.407781730E0,-3.088898957E-1,4.959745407E-1,-4.389495850E-1,7.308080807E-1
3.412796209E0,6.135066599E-2,7.868902683E-1,-3.150768280E-1,8.498432833E-1
3.417810740E0,-6.625980139E-1,7.841293812E-1,-6.672382355E-2,1.028759973E0
3.422825220E0,1.414514333E-1,9.653408527E-1,-2.625131607E-1,1.010348766E0
3.427839751E0,-3.330303431E-1,7.848820686E-1,-6.065444946E-1,1.046348553E0
3.432854230E0,-1.102858424E0,8.322854042E-1,2.675085068E-1,1.407322457E0
3.437868761E0,1.153374910E-1,7.418575287E-1,-7.295484543E-1,1.046850647E0
3.442883240E0,-6.944210529E-1,7.742440701E-1,-1.399059296E-1,1.049403711E0
3.447897772E0,3.954498470E-1,1.032115698E0,-2.390403748E-1,1.130833187E0
3.452912251E0,-8.757477999E-1,7.893717289E-1,-1.925182343E-2,1.179157567E0
3.457926782E0,5.530162454E-1,7.055735588E-1,-4.638080597E-1,1.009345793E0
3.462941261E0,-1.293161154E0,8.833060265E-1,2.469339371E-1,1.585393224E0
3.467955793E0,5.680311918E-1,6.373991966E-1,-7.127275467E-1,1.112168030E0
3.472970272E0,-6.661128998E-1,9.324014187E-1,-2.707424164E-1,1.177446499E0
3.477984751E0,-2.559235692E-2,8.268280029E-1,-3.835773468E-1,9.118284357E-1
3.482999282E0,-5.098445415E-1,9.191427231E-1,-3.530035019E-1,1.108772418E0
3.488013761E0,-4.663942754E-1,8.365890980E-1,-4.173431396E-1,1.044787172E0
3.493028293E0,-5.830127001E-1,3.152034283E-1,-5.261335373E-1,8.462112672E-1
3.498042772E0,-6.109236479E-1,6.381115913E-1,-7.833890915E-1,1.180725444E0
3.503057303E0,-2.799460888E-1,5.473182201E-1,-6.775217056E-1,9.148566600E-1
3.508071782E0,-7.945524454E-1,5.378921032E-1,-4.870309830E-1,1.076030056E0
3.513086313E0,-3.482864797E-1,7.396702766E-1,-4.191446304E-1,9.187479585E-1
3.518100793E0,-4.711993337E-1,7.354431152E-1,-4.063701630E-1,9.633494159E-1
3.523115324E0,-1.773114949E-1,6.856925488E-1,-5.098533630E-1,8.726763945E-1
3.528129803E0,-4.160175323E-1,6.644401550E-1,-2.989072800E-1,8.389856190E-1
3.533144334E0,-1.396415681E-1,6.858170033E-1,-4.837207794E-1,8.507823000E-1
3.538158813E0,-7.677410841E-1,8.275184631E-1,-1.325645447E-1,1.136567876E0
3.543173345E0,-3.318652213E-1,6.751039028E-1,-5.128059387E-1,9.104228333E-1
3.548187824E0,-5.907155871E-1,5.821976662E-1,-5.902509689E-1,1.017985871E0
3.553202303E0,-4.673854709E-1,6.051855087E-1,-6.712799072E-1,1.017504492E0
3.558216834E0,-8.908444047E-1,5.270366669E-1,-5.279369354E-1,1.161933221E0
3.563231313E0,-8.099136949E-1,6.049664021E-1,-6.725111008E-1,1.214172855E0
3.568245845E0,-6.719681025E-1,5.905640125E-1,-7.179241180E-1,1.147049268E0
3.573260324E0,-8.534393907E-1,5.868070126E-1,-4.964694977E-1,1.148557019E0
3.578274855E0,-2.503009439E-1,5.788979530E-1,-5.253591537E-1,8.208383781E-1
3.583289334E0,1.388965547E-1,4.674229622E-1,-6.103219986E-1,7.811974273E-1
3.588303865E0,-7.162499428E-1,5.383107662E-1,-1.075906754E-1,9.024235231E-1
3.593318345E0,-3.343255222E-1,4.797790051E-1,-1.667165756E-1,6.080755422E-1
3.598332876E0,-4.901197255E-1,4.831318855E-1,-3.534078598E-1,7.736477748E-1
3.603347355E0,-3.405475318E-1,5.269539356E-1,-3.106975555E-1,7.001328751E-1
3.608361886E0,-5.199656487E-1,3.540844917E-1,-3.275804520E-1,7.092595121E-1
3.613376365E0,-5.197805166E-2,2.802484035E-1,-3.207015991E-1,4.290575733E-1
3.618390845E0,-3.335252404E-1,3.234672546E-1,-2.450752258E-1,5.252923159E-1
3.623405376E0,-1.596780121E-1,-4.213690758E-2,-4.121875763E-1,4.440396205E-1
3.628419855E0,2.262088656E-2,1.823318005E-1,-3.004083633E-1,3.521388572E-1
3.633434386E0,-4.830144942E-1,7.090401649E-2,4.280567169E-2,4.900639822E-1
3.638448865E0,-4.483838677E-1,1.697814465E-1,7.869720459E-3,4.795161779E-1
3.643463397E0,-2.590999007E-1,5.722284317E-2,1.296043396E-1,2.953040758E-1
3.648477876E0,-6.601521969E-1,1.747248173E-1,4.017620087E-1,7.923019604E-1
3.653492407E0,-6.783900261E-1,3.995749950E-1,4.075050354E-1,8.865289381E-1
3.658506886E0,-3.095229566E-1,3.409485817E-1,2.846097946E-1,5.413438198E-1
3.663521418E0,-7.337486744E-1,3.480432034E-1,4.756307602E-1,9.411406954E-1
3.668535897E0,-4.569920599E-1,3.633296490E-1,3.345937729E-1,6.729065088E-1
3.673550376E0,-2.110458016E-1,3.245422840E-1,-1.922130585E-2,3.876048027E-1
3.678564907E0,-3.231360316E-1,4.308724403E-1,6.913471222E-2,5.429986770E-1
3.683579386E0,-1.759806573E-1,1.848561764E-1,-2.444229126E-1,3.533886782E-1
3.688593918E0,-1.888724566E-1,1.849424839E-1,-5.100679398E-1,5.744961535E-1
3.693608397E0,-6.095546484E-1,1.978795528E-1,-3.906936646E-1,7.505696013E-1
3.698622928E0,-3.763812780E-1,-1.814889908E-1,-6.780929565E-1,7.964993270E-1
3.703637407E0,-4.252371490E-1,1.936793327E-1,-5.447340012E-1,7.176861771E-1
3.708651938E0,-4.848434627E-1,1.424884796E-1,-1.249780655E-1,5.205724416E-1
3.713666418E0,-6.178916693E-1,8.596897125E-2,-7.390403748E-2,6.282058466E-1
3.718680949E0,-4.054637253E-1,2.437827587E-1,-1.064386368E-1,4.849330360E-1
3.723695428E0,-2.779804766E-1,3.741250038E-1,-1.742954254E-1,4.976158751E-1
3.728709959E0,-2.439237535E-1,4.392080307E-1,1.958656311E-2,5.027784057E-1
3.733724438E0,-1.652077436E-1,3.044643402E-1,-4.460906982E-2,3.492593623E-1
3.738738918E0,-6.826453209E-1,4.366817474E-1,2.407369614E-1,8.453696631E-1
3.743753449E0,-3.295483887E-1,2.093572617E-1,7.023048401E-2,3.966924809E-1
3.748767928E0,-4.588864446E-1,3.014738560E-1,-3.213977814E-2,5.499965638E-1
3.753782459E0,-6.981728077E-1,1.024203300E-1,1.942625046E-1,7.318969286E-1
3.758796938E0,-8.095833063E-1,-1.815083027E-1,1.390657425E-1,8.412548214E-1
3.763811470E0,-6.184266210E-1,-2.770659924E-1,1.182050705E-1,6.878877004E-1
3.768825949E0,-3.431392908E-1,-5.310833454E-1,-3.537559509E-2,6.332815530E-1
3.773840480E0,-1.656507850E-1,-4.015219212E-1,-1.754560471E-1,4.684494212E-1
3.778854959E0,4.858973622E-2,-4.672889709E-1,-1.697444916E-1,4.995329191E-1
3.783869438E0,-1.473788917E-1,-2.840662003E-1,-1.457223892E-1,3.516378230E-1
3.788883970E0,-3.681287766E-1,4.609131813E-2,1.042366028E-3,3.710044370E-1
3.793898449E0,-2.827833891E-1,6.900405884E-2,2.526597977E-1,3.854412778E-1
3.798912980E0,-5.857438445E-1,2.327377796E-1,4.329719543E-1,7.646747274E-1
3.803927459E0,-3.539137244E-1,7.065892220E-2,3.716259003E-1,5.180283944E-1
3.808941990E0,-6.552962065E-1,-4.971170425E-2,6.906213760E-1,9.533321860E-1
3.813956470E0,-5.863581896E-1,-1.736638546E-1,5.961685181E-1,8.540444736E-1
3.818971001E0,-2.875381708E-2,-2.093715668E-1,1.846151352E-1,2.806171469E-1
3.823985480E0,5.668118596E-2,-3.468196392E-1,-5.497837067E-2,3.556954318E-1
3.829000011E0,-1.556903720E-1,-2.600531578E-1,-1.928014755E-1,3.592207480E-1
3.834014490E0,-4.795169830E-2,-2.166428566E-1,-2.369422913E-1,3.246153756E-1
3.839029022E0,-5.007166266E-1,-5.716323853E-2,-1.454753876E-1,5.245453883E-1
3.844043501E0,-7.550232410E-1,-1.011440754E-1,2.370738983E-2,7.621366405E-1
3.849057980E0,-7.621924877E-1,-1.735961437E-1,-1.258659363E-2,7.818129135E-1
3.854072511E0,-8.925201297E-1,-1.388301849E-1,-5.088424683E-2,9.046851434E-1
3.859086990E0,-6.914187670E-1,6.863808632E-2,1.771459579E-1,7.170437843E-1
3.864101522E0,-5.794962049E-1,-2.942276001E-2,3.034915924E-1,6.548195911E-1
3.869116001E0,-5.491328835E-1,2.381944656E-1,5.834083557E-1,8.358521620E-1
3.874130532E0,2.669544220E-1,-1.478414536E-1,3.960199356E-1,4.999535461E-1
3.879145011E0,3.162258863E-2,-1.061100960E-1,2.602233887E-1,2.827994919E-1
3.884159543E0,7.366538048E-3,-3.241930008E-1,5.697727203E-2,3.292442515E-1
3.889174022E0,-1.041651368E-1,-2.932200432E-1,7.367706299E-2,3.197759826E-1
3.894188501E0,-3.355153799E-1,-1.054961681E-1,2.230262756E-1,4.164621607E-1
3.899203032E0,-5.859126449E-1,-1.920325756E-1,8.605480194E-2,6.225556734E-1
3.904217511E0,-5.754816532E-1,-3.791322708E-1,-2.632141113E-4,6.891447462E-1
3.909232043E0,-5.218954086E-1,-1.748139858E-1,-2.024564743E-1,5.864498028E-1
3.914246522E0,-1.014029860E0,-1.156349182E-1,2.658882141E-1,1.054667974E0
3.919261053E0,-1.129289031E0,-3.801441193E-2,4.288167953E-1,1.208562226E0
3.924275532E0,-5.235957503E-1,-1.101799011E-1,3.598403931E-1,6.448079007E-1
3.929290063E0,-2.344056964E-1,-3.897690773E-2,3.744230270E-1,4.434611967E-1
3.934304543E0,5.607182384E-1,8.138680458E-2,3.152904510E-1,6.484109988E-1
3.939319022E0,-1.816239357E-1,-7.746362686E-2,5.891656876E-1,6.213727343E-1
3.944333553E0,-2.274264097E-1,-1.668722630E-1,3.269176483E-1,4.317919323E-1
3.949348032E0,4.409164190E-2,-7.500934601E-2,3.108310699E-2,9.239390897E-2
3.954362563E0,-7.780686617E-1,9.668707848E-2,4.380626678E-1,8.981303549E-1
3.959377043E0,-9.006472230E-1,3.816556931E-2,2.627515793E-1,9.389677435E-1
3.964391574E0,-6.908405423E-1,-2.224683762E-1,-5.811309814E-2,7.281002441E-1
3.969406053E0,-1.249154925E0,-3.771913052E-1,-4.368972778E-2,1.305591858E0
3.974420584E0,-1.004233837E0,-1.089167595E-1,2.462682724E-1,1.039709826E0
3.979435063E0,-5.283938050E-1,-3.681547642E-1,3.630552292E-1,7.392882002E-1
3.984449595E0,-3.823056817E-1,-4.381306171E-1,-3.847694397E-2,5.827491288E-1
3.989464074E0,4.253432155E-1,-3.050904274E-1,-1.022415161E-1,5.333388674E-1
3.994478553E0,-8.143097162E-2,-1.009411812E-1,1.996583939E-1,2.380831776E-1
3.999493084E0,-2.916212082E-1,5.502414703E-2,4.890613556E-1,5.720590838E-1
4.004507563E0,-1.867635250E-1,-1.136779785E-3,5.123023987E-1,5.452849294E-1
4.009522095E0,-2.702298164E-1,-2.344169617E-1,3.807926178E-1,5.224734284E-1
4.014536574E0,-4.951725006E-1,-2.401232719E-2,5.612649918E-1,7.488596585E-1
4.019551105E0,-7.287404537E-1,-1.477868557E-1,7.970371246E-1,1.090032927E0
4.024565584E0,-1.347094059E0,-3.289570808E-1,8.485727310E-1,1.625715487E0
4.029580063E0,-7.160953283E-1,-6.799318790E-1,2.919855118E-1,1.029735606E0
4.034594595E0,-2.301963568E-1,-3.946359158E-1,1.034440994E-1,4.684320126E-1
4.039609074E0,-3.250949383E-1,-6.126000881E-1,1.822929382E-1,7.170748233E-1
4.044623605E0,1.075565815E-1,-4.369473457E-1,-1.407737732E-1,4.714961892E-1
4.049638084E0,1.972104907E-1,-4.876232147E-1,-2.549304962E-1,5.845151282E-1
4.054652615E0,-2.645808458E-1,-3.262476921E-1,-1.712656021E-1,4.536215240E-1
4.059667095E0,-4.118272066E-1,-4.530076981E-1,4.097938538E-3,6.122372218E-1
4.064681626E0,-7.044790983E-1,-1.794903278E-1,3.652830124E-1,8.135964951E-1
4.069696105E0,-1.326738477E0,-1.933197975E-1,6.688318253E-1,1.498313565E0
4.074710584E0,-9.395582676E-1,-3.717298508E-1,3.623876572E-1,1.073441957E0
4.079725115E0,-9.511089325E-1,-6.380372047E-1,4.103288651E-1,1.216581051E0
4.084739595E0,-6.995552778E-1,-8.676340580E-1,3.562860489E-1,1.170088114E0
4.089754126E0,5.627063513E-1,-9.303517342E-1,-2.997159958E-1,1.127839734E0
4.094768605E0,3.409492970E-1,-8.390040398E-1,5.656433105E-2,9.073994299E-1
4.099783136E0,-3.755271435E-1,-9.892971516E-1,5.551910400E-1,1.194975556E0
4.104797615E0,-2.737245560E-1,-1.145779133E0,2.377443314E-1,1.201772575E0
4.109812147E0,-8.346937895E-1,-9.277935028E-1,3.120069504E-1,1.286414724E0
4.114826626E0,-8.007186651E-1,-7.325243950E-1,3.024501801E-1,1.126595971E0
4.119841105E0,-5.855289698E-1,-5.237472057E-1,5.179080963E-1,9.409485141E-1
4.124855636E0,-1.435185552E0,-5.419650078E-1,9.449720383E-1,1.801792383E0
4.129870115E0,-8.088622093E-1,-6.690649986E-1,5.612449646E-1,1.190336909E0
4.134884647E0,-2.369797230E-2,-8.326416016E-1,3.797435760E-2,8.338439197E-1
4.139899126E0,-6.198060513E-1,-7.403695583E-1,4.613866806E-1,1.070132839E0
4.144913657E0,2.176260948E-1,-6.770284176E-1,3.992500305E-1,8.155545244E-1
4.149928136E0,6.681607962E-1,-7.661268711E-1,1.856479645E-1,1.033370407E0
4.154942668E0,3.594110012E-1,-9.376089573E-1,3.110456467E-1,1.051207030E0
4.159957147E0,2.668728828E-1,-7.778415680E-1,4.948120117E-1,9.597382807E-1
4.164971626E0,-6.228125095E-2,-9.922342300E-1,3.731594086E-1,1.061911327E0
4.169986157E0,-4.528037310E-1,-1.043723345E0,2.478809357E-1,1.164403108E0
4.175000636E0,-6.118332148E-1,-9.951579571E-1,2.707786560E-1,1.199166512E0
4.180015168E0,-8.480778933E-1,-1.013546944E0,4.834432602E-1,1.407206774E0
4.185029647E0,-6.025774479E-1,-9.324531555E-1,4.427556992E-1,1.195241012E0
4.190044178E0,-6.981348991E-2,-1.108206987E0,1.554164886E-1,1.121227423E0
4.195058657E0,3.128854036E-1,-9.139885902E-1,1.282787323E-2,9.661454203E-1
4.200073136E0,4.551153183E-1,-5.640957355E-1,4.005489349E-1,8.281143647E-1
4.205087668E0,3.792202473E-1,-7.201235294E-1,3.244800568E-1,8.761696187E-1
4.210102147E0,6.786642075E-1,-9.894046783E-1,-5.927371979E-2,1.201257715E0
4.215116678E0,5.316442251E-1,-1.028414488E0,1.916303635E-1,1.173458196E0
4.220131157E0,9.314477444E-2,-9.552202225E-1,3.098669052E-1,1.008533153E0
4.225145688E0,-1.110813618E-1,-8.018975258E-1,5.148630142E-1,9.594074391E-1
4.230160168E0,-2.852431536E-1,-8.990068436E-1,5.613975525E-1,1.097608388E0
4.235174699E0,6.382322311E-2,-9.974713326E-1,4.486846924E-2,1.000517687E0
4.240189178E0,1.158386469E-1,-8.953728676E-1,1.449604034E-1,9.143985360E-1
4.245203657E0,1.144682169E-1,-8.575487137E-1,1.372203827E-1,8.759692931E-1
4.250218188E0,4.685037136E-1,-7.429387569E-1,-2.411785126E-1,9.108352217E-1
4.255232668E0,-4.876852036E-2,-4.980747700E-1,1.238899231E-1,5.155633405E-1
4.260247199E0,-5.097273588E-1,-5.658354759E-1,5.261154175E-1,9.256290827E-1
4.265261678E0,-1.275086403E-2,-6.517753601E-1,1.913099289E-1,6.793917820E-1
4.270276209E0,-1.156361103E-1,-6.088907719E-1,2.913656235E-1,6.848456823E-1
4.275290688E0,-6.795883179E-3,-6.801338196E-1,2.932405472E-1,7.406876636E-1
4.280305168E0,2.767144442E-1,-4.208226204E-1,3.022480011E-1,5.873809800E-1
4.285319699E0,2.964297533E-1,-5.507776737E-1,2.851638794E-1,6.874191462E-1
4.290334178E0,4.649091959E-1,-3.713202477E-1,2.993602753E-1,6.660599531E-1
4.295348709E0,7.341597080E-1,-6.255080700E-1,-4.705429077E-3,9.645065907E-1
4.300363188E0,1.651351452E-1,-2.862720490E-1,5.247211456E-1,6.201238448E-1
4.305377720E0,6.872725487E-2,-3.128671646E-1,3.088378906E-1,4.449608308E-1
4.310392199E0,-2.220089436E-1,-1.231906414E-1,2.895240784E-1,3.850819356E-1
4.315406730E0,-6.821393967E-3,-3.431961536E-1,-1.571512222E-1,3.775270029E-1
4.320421209E0,-5.860798359E-1,-3.079209328E-1,-5.625057220E-2,6.644313371E-1
4.325435688E0,-1.904258728E-1,-6.897470951E-1,-2.948913574E-1,7.739340934E-1
4.330450220E0,3.700568676E-1,-9.893357754E-1,-1.007904053E0,1.459999295E0
4.335464699E0,-1.376748085E-2,-1.297336102E0,-8.669033051E-1,1.560381955E0
4.340479230E0,-2.316327095E-1,-1.019531012E0,-4.059591293E-1,1.121561416E0
4.345493709E0,5.350242853E-1,-8.813173771E-1,-6.493835449E-1,1.218470473E0
4.350508188E0,-3.998975754E-1,-6.312217712E-1,-1.032066345E-1,7.543279159E-1
4.355522720E0,-7.266557217E-1,-2.032756805E-2,3.972101212E-1,8.283825374E-1
4.360537199E0,2.210831642E-2,3.947210312E-2,3.345003128E-1,3.375459729E-1
4.365551730E0,-3.604307175E-1,3.049728870E-1,6.962909698E-1,8.412727730E-1
4.370566209E0,2.064914703E-1,2.878348827E-1,4.821901321E-1,5.983268092E-1
4.375580740E0,7.419413328E-1,3.149361610E-1,-1.786422729E-2,8.062139031E-1
4.380595220E0,6.818366051E-1,3.240807056E-1,-1.012458801E-1,7.616956006E-1
4.385609751E0,-6.623578072E-2,3.243422508E-1,-1.225337982E-1,3.529866938E-1
4.390624230E0,-6.178424358E-1,3.556299210E-1,-8.486747742E-3,7.129333357E-1
4.395638709E0,-8.274581432E-1,2.493157387E-1,-1.401805878E-1,8.754975234E-1
4.400653240E0,-8.189067841E-1,2.746002674E-1,-4.015369415E-1,9.524943796E-1
4.405667720E0,-5.206356049E-1,4.219934940E-1,-2.743606567E-1,7.241641472E-1
4.410682251E0,-1.345455647E-1,8.726503849E-1,-1.794319153E-1,9.010088876E-1
4.415696730E0,6.070661545E-2,9.495811462E-1,-9.497451782E-2,9.562477741E-1
4.420711261E0,9.064736366E-1,9.571268559E-1,-3.790798187E-1,1.371673351E0
4.425725740E0,1.744683504E0,8.284094334E-1,-9.356384277E-1,2.146066631E0
4.430740220E0,2.592385292E0,1.199344635E0,-1.086931229E0,3.056191838E0
4.435754751E0,4.118585587E0,1.014887094E0,-1.799361229E0,4.607650581E0
4.440769230E0,4.527294159E0,1.178698540E0,-1.883589745E0,5.043176873E0
4.445783761E0,4.111848831E0,1.056702375E0,-1.734994888E0,4.586297852E0
4.450798240E0,3.819749355E0,9.671950340E-1,-2.369940758E0,4.598105106E0
4.455812772E0,3.350388050E0,1.177066803E0,-2.417152405E0,4.295720207E0
4.460827251E0,2.446132183E0,4.454474449E-1,-2.922607422E0,3.837136983E0
4.465841730E0,7.295011282E-1,9.600615501E-1,-2.000865936E0,2.336098151E0
4.470856261E0,2.864195585E0,6.297917366E-1,-2.637943268E0,3.944489659E0
4.475870740E0,3.526710510E0,3.833098412E-1,-2.688541412E0,4.451164834E0
4.480885272E0,5.423154831E0,4.473724365E-1,-3.165949821E0,6.295553088E0
4.485899751E0,3.518467426E0,-9.915351868E-3,-2.134206772E0,4.115160980E0
4.490914282E0,6.414477348E0,1.416606903E-1,-2.893894196E0,7.038480732E0
4.495928761E0,3.064780235E0,4.329681396E-4,-1.729480743E0,3.519088194E0
4.500943240E0,3.838073730E0,1.675608158E-1,-1.283502579E0,4.050464845E0
4.505957772E0,4.377987862E0,-1.594600677E-1,-2.451869965E0,5.020345760E0
4.510972251E0,3.636079550E0,1.725928783E-1,-1.371822357E0,3.890084751E0
4.515986782E0,3.747563362E0,2.341670990E-1,-1.383787155E0,4.001741155E0
4.521001261E0,4.594415665E0,1.597819328E-1,-1.537904739E0,4.847611428E0
4.526015793E0,3.132189512E0,6.881830692E-1,-8.177394867E-1,3.309517328E0
4.531030272E0,2.991202354E0,1.721723080E-1,-7.976512909E-1,3.100513250E0
4.536044751E0,4.904581070E0,6.254408360E-1,-1.703693390E0,5.229594906E0
4.541059282E0,3.278646231E0,2.875421047E-1,-1.170599937E0,3.493208522E0
4.546073761E0,3.579447746E0,6.234376431E-1,-9.683275223E-1,3.760156759E0
4.551088293E0,4.518666744E0,5.446598530E-1,-9.891529083E-1,4.657620313E0
4.556102772E0,4.800530434E0,5.621149540E-1,-1.215717316E0,4.983877432E0
4.561117303E0,4.074854851E0,5.532131195E-1,-1.008709908E0,4.234144835E0
4.566131782E0,5.278349876E0,2.761025429E-1,-1.832213402E0,5.594123343E0
4.571146261E0,3.497794151E0,4.958391190E-1,-1.360720634E0,3.785760294E0
4.576160793E0,3.205249786E0,3.600342274E-1,-1.226207733E0,3.450628384E0
4.581175272E0,3.028470516E0,4.938249588E-1,-1.552836418E0,3.439011151E0
4.586189803E0,3.367895126E0,6.499228477E-1,-1.605915070E0,3.787357984E0
4.591204282E0,2.792505980E0,6.539759636E-1,-1.230387688E0,3.120837719E0
4.596218761E0,2.368007183E0,6.424765587E-1,-1.808953285E0,3.048367782E0
4.601233293E0,8.545249701E-1,7.376236916E-1,-1.198328972E0,1.646297045E0
4.606247772E0,-1.155511856E0,6.905651093E-1,-1.133584976E0,1.759858721E0
4.611262303E0,-1.822606683E0,7.958452702E-1,-7.601346970E-1,2.129100649E0
4.616276782E0,4.457998276E-1,6.017353535E-1,-1.618700027E0,1.783539375E0
4.621291313E0,-1.037433624E0,9.454071522E-1,-3.337993622E-1,1.442735327E0
4.626305793E0,1.450680137E0,5.902719498E-1,-1.293128014E0,2.031027792E0
4.631320272E0,2.134218216E0,7.687790394E-1,-1.242609024E0,2.586500685E0
4.636334803E0,1.642626762E0,9.541099072E-1,-2.713375092E-1,1.918898757E0
4.641349282E0,3.194667816E0,5.781185627E-1,-1.128481865E0,3.437091044E0
4.646363813E0,7.463016510E-1,1.014871359E0,4.688262939E-3,1.259742835E0
4.651378293E0,-5.361977816E-1,8.485028744E-1,7.084522247E-1,1.228564098E0
4.656392824E0,8.237026930E-1,3.030402660E-1,-7.464618683E-1,1.152182646E0
4.661407303E0,-2.939809322E0,9.720194340E-1,1.325161934E0,3.367989724E0
4.666421782E0,2.142605782E-1,3.791460991E-1,1.390457153E-1,4.571575995E-1
4.671436313E0,-1.602120996E0,5.546188354E-1,-3.403959274E-1,1.729237729E0
4.676450793E0,-2.216069460E0,8.758678436E-1,1.141007423E0,2.641970150E0
4.681465324E0,-2.272930384E0,3.205556870E-1,5.156965256E-1,2.352639238E0
4.686479803E0,-2.003724337E0,1.088525772E0,-5.204391479E-2,2.280900731E0
4.691494334E0,-2.564123631E0,6.586928368E-1,4.153833389E-1,2.679766700E0
4.696508813E0,-3.221543074E0,1.431588173E0,1.305775166E0,3.759366071E0
4.701523293E0,-2.353739738E-2,7.064957619E-1,-7.414817810E-2,7.107659410E-1
4.706537824E0,-3.576872349E0,9.236278534E-1,1.092670441E0,3.852406119E0
4.711552303E0,-3.919675350E0,4.360458851E-1,2.122349262E0,4.478655742E0
4.716566834E0,-1.893402338E0,8.526349068E-2,-9.919242859E-1,2.139195191E0
4.721581313E0,-4.697722435E0,6.919157505E-1,1.256389141E0,4.911807931E0
4.726595793E0,-6.426618576E0,-2.529768944E-1,1.692506790E0,6.650564101E0
4.731610324E0,-2.501158237E0,-9.866046906E-2,-9.605817795E-1,2.681090034E0
4.736624803E0,-4.399636745E0,-2.025480270E-1,6.836767197E-1,4.457044206E0
4.741639334E0,-3.736185074E0,4.596662521E-2,1.482585907E0,4.019857312E0
4.746653813E0,-2.909804106E0,-4.321634769E-1,3.862037659E-1,2.966964535E0
4.751668345E0,-5.161496639E0,-2.823405266E-1,1.326786041E0,5.336771021E0
4.756682824E0,-2.396053791E0,-6.746401787E-1,5.247354507E-1,2.543926185E0
4.761697303E0,-6.936434269E0,-4.683861732E-1,1.895704269E0,7.206053056E0
4.766711834E0,-3.978536844E0,-1.109328985E0,1.559010506E0,4.414734417E0
4.771726313E0,-4.447867393E0,-7.112228870E-1,1.190182209E0,4.658958686E0
4.776740845E0,-3.108251095E0,-9.170181751E-1,1.643465519E0,3.633610617E0
4.781755324E0,-4.313031673E0,-1.083022118E0,1.317206860E0,4.637910417E0
4.786769803E0,-3.735354900E0,-8.653535843E-1,2.066828728E0,4.355857441E0
4.791784334E0,-3.612502813E0,-1.352927685E0,6.990394592E-1,3.920363001E0
4.796798813E0,-7.851080894E0,-4.117987156E-1,2.909634113E0,8.383019746E0
4.801813345E0,-4.754348278E0,-1.690167665E0,8.322486877E-1,5.114013313E0
4.806827824E0,-8.515137672E0,-3.971199989E-1,2.124152184E0,8.785060977E0
4.811842355E0,-6.521581173E0,-2.095283508E0,1.558119774E0,7.024882291E0
4.816856834E0,-5.898768902E0,-1.127905369E0,6.569671631E-1,6.041460993E0
4.821871313E0,-1.728103399E0,-1.807545185E0,1.502733231E-1,2.505223149E0
4.826885845E0,-7.431095600E0,-1.466895103E0,2.435462952E0,7.956408917E0
4.831900324E0,2.827804387E-1,-8.984489441E-1,8.606023788E-1,1.275857255E0
4.836914855E0,8.537344933E-1,-1.686749697E0,-6.356277466E-1,1.994494863E0
4.841929334E0,-1.546593189E0,-5.778985023E-1,2.228875160E0,2.773770295E0
4.846943865E0,1.228561282E0,-1.437599421E0,2.956027985E-1,1.914010432E0
4.851958345E0,1.906718493E0,-8.088266850E-1,3.599357605E-2,2.071490177E0
4.856972824E0,-1.432147384E0,-1.225358963E0,1.528993130E0,2.427008592E0
4.861987355E0,-5.108648300E0,-8.178904057E-1,2.166252136E0,5.608910811E0
4.867001834E0,-1.066457510E0,-1.510078192E0,-8.153829575E-1,2.020523975E0
4.872016365E0,-5.803713799E0,-1.047988415E0,5.339984894E-1,5.921699753E0
4.877030845E0,-4.645237446E0,-1.007278442E0,1.433494568E0,4.964649783E0
4.882045324E0,-1.248039246E0,-7.837696075E-1,-7.865428925E-2,1.475833071E0
4.887059855E0,1.640347958E0,-3.777711391E-1,3.855333328E-1,1.726872435E0
4.892074334E0,6.734001637E-1,-1.171433687E0,2.990112305E-1,1.383883080E0
4.897088865E0,4.069571495E0,-6.171863079E-1,-5.622882843E-1,4.154334990E0
4.902103345E0,3.439053535E0,-1.066717148E0,-6.530284882E-1,3.659429040E0
4.907117824E0,5.806967616E-1,-5.653250217E-1,8.459815979E-1,1.171531465E0
4.912132355E0,3.237451553E0,-6.151502132E-1,-5.812549591E-2,3.295888487E0
4.917146834E0,2.979507446E0,-6.834952831E-1,-1.109488487E0,3.252014011E0
4.922161365E0,2.211783171E0,-5.325334072E-1,-4.172248840E-1,2.312931739E0
4.927175845E0,3.586246967E-1,-5.959115028E-1,-4.146986008E-1,8.097512716E-1
4.932190376E0,2.388305426E0,-2.830817699E-1,-1.263874054E0,2.716894499E0
4.937204855E0,-7.254632711E-1,-4.888489246E-1,-4.158115387E-2,8.757849172E-1
4.942219334E0,8.554334641E-1,-3.136699200E-1,-5.617332458E-1,1.070373519E0
4.947233865E0,1.245435357E0,-4.805493355E-1,-1.724460602E0,2.180779966E0
4.952248345E0,2.745802104E-1,-2.598919868E-1,-7.171688080E-1,8.107214293E-1
4.957262876E0,4.360557795E-1,-7.477178574E-1,-1.090483665E0,1.392257613E0
4.962277355E0,1.713262796E0,-3.054282665E-1,-1.436877251E0,2.256805722E0
4.967291834E0,1.321725368E0,-6.078429222E-1,-7.472429276E-1,1.635482486E0
4.972306365E0,2.146518946E0,-6.050305367E-1,-1.365816116E0,2.615159498E0
4.977320845E0,3.295234442E0,-6.789870262E-1,-2.012198448E0,3.920272440E0
4.982335376E0,9.457060099E-1,-4.931676388E-1,-8.665170670E-1,1.374200133E0
4.987349855E0,1.571987987E0,-4.401919842E-1,-6.111898422E-1,1.743120259E0
4.992364386E0,2.876190424E0,-7.899305820E-1,-1.759337425E0,3.462907717E0
4.997378865E0,2.171693802E0,-5.592720509E-1,-5.791254044E-1,2.316122931E0
5.002393345E0,1.793542862E0,-6.972720623E-1,-8.181409836E-1,2.091013868E0
5.007407876E0,2.550428391E0,-7.420599461E-1,-1.580488205E0,3.090838220E0
5.012422355E0,-6.617969275E-2,-6.406393051E-1,-2.833490372E-1,7.036228733E-1
5.017436886E0,4.796844125E-1,-4.567155838E-1,-2.866868973E-1,7.217171448E-1
5.022451365E0,2.465938807E0,-3.171677589E-1,-1.170476913E0,2.747993048E0
5.027465845E0,1.665168285E0,-7.585120201E-2,-1.673145294E-1,1.675271015E0
5.032480376E0,1.970680833E0,-4.941177368E-2,9.469032288E-3,1.971322939E0
5.037494855E0,2.610388279E0,-2.590677738E-1,-4.383449554E-1,2.659584437E0
5.042509386E0,9.383102059E-1,-3.176615238E-1,4.365348816E-1,1.082542188E0
5.047523865E0,5.094140172E-1,-3.977887630E-1,5.118236542E-1,8.244404126E-1
5.052538345E0,2.920760393E0,-4.100766182E-1,-4.940891266E-1,2.990506340E0
5.057552876E0,1.520709157E0,-1.711010933E-1,4.099178314E-2,1.530853439E0
5.062567355E0,8.991076946E-1,3.626346588E-3,7.353324890E-1,1.161516968E0
5.067581886E0,1.615156174E0,-1.323213577E-1,-8.358955383E-3,1.620588868E0
5.072596365E0,1.329744577E0,1.364493370E-1,8.308887482E-2,1.339306845E0
5.077610845E0,7.440305352E-1,-1.836776733E-3,4.662818909E-1,8.780681140E-1
5.082625376E0,2.469689131E0,3.242158890E-2,-4.183616638E-1,2.505083241E0
5.087639855E0,1.796328664E0,2.843005657E-1,-4.908275604E-2,1.819349498E0
5.092654386E0,-6.742313504E-2,4.739243984E-1,1.058462620E0,1.161676948E0
5.097668865E0,1.469142079E0,3.117942810E-1,1.633148193E-1,1.510717000E0
5.102683345E0,1.058443308E0,4.653177261E-1,3.978929520E-1,1.222759839E0
5.107697876E0,6.419471502E-1,4.484136105E-1,1.139311790E0,1.382462392E0
5.112712355E0,2.037160873E0,3.373470306E-1,1.227598190E-1,2.068549592E0
5.117726886E0,1.184660912E0,1.569352150E-1,5.062513351E-1,1.297821464E0
5.122741365E0,-2.822393477E-1,4.950428009E-1,1.107102871E0,1.245151875E0
5.127755897E0,6.720813513E-1,2.570712566E-1,2.172346115E-1,7.516447633E-1
5.132770376E0,4.920537770E-2,7.654032707E-1,4.044475555E-1,8.670877471E-1
5.137784855E0,2.884427607E-1,7.312951088E-1,6.746082306E-1,1.035899622E0
5.142799386E0,3.368006945E-1,8.544583321E-1,5.286321640E-1,1.059710203E0
5.147813865E0,7.574363947E-1,6.833906174E-1,5.668697357E-1,1.167079228E0
5.152828345E0,-7.039139271E-1,6.004042625E-1,1.057214260E0,1.404877962E0
5.157842876E0,-1.301535666E-1,5.122158527E-1,6.505031586E-1,8.381285045E-1
5.162857355E0,9.621372819E-1,5.308392048E-1,1.633796692E-1,1.110941640E0
5.167871886E0,-2.941932976E-1,5.513119698E-1,8.726167679E-1,1.073291483E0
5.172886365E0,7.338896394E-2,4.795951843E-1,8.307428360E-1,9.620452902E-1
5.177900845E0,9.529988170E-1,4.381835461E-1,2.010793686E-1,1.068009587E0
5.182915376E0,-3.056128919E-1,4.031071663E-1,7.968358994E-1,9.438443080E-1
5.187929855E0,-3.167269006E-2,5.707476139E-1,6.795320511E-1,8.879863774E-1
5.192944386E0,1.420812249E0,7.563652992E-1,6.065177917E-2,1.610737270E0
5.197958865E0,-5.242044851E-2,5.439176559E-1,7.580461502E-1,9.344668457E-1
5.202973397E0,-3.712619245E-1,6.080234051E-1,8.692278862E-1,1.123870542E0
5.207987876E0,1.547242701E-2,5.208477974E-1,5.070629120E-1,7.270726379E-1
5.213002355E0,-3.650295734E-1,6.027984619E-1,4.971733093E-1,8.624348524E-1
5.218016886E0,-9.724901915E-1,6.793794632E-1,8.652839661E-1,1.468335782E0
5.223031365E0,2.057289332E-1,7.241024971E-1,5.230445862E-1,9.166375835E-1
5.228045897E0,1.065772325E-1,6.269962788E-1,5.234699249E-1,8.237134225E-1
5.233060376E0,-1.289845705E0,7.881393433E-1,1.351255417E0,2.027500128E0
5.238074855E0,-9.948714972E-1,6.615350246E-1,9.946489334E-1,1.554581740E0
5.243089386E0,-4.078519344E-1,7.047364712E-1,7.198266983E-1,1.086805949E0
5.248103865E0,-1.409035087E0,6.448509693E-1,1.141233444E0,1.924480819E0
5.253118397E0,-1.312267184E0,8.358345032E-1,1.167657375E0,1.945273304E0
5.258132876E0,-3.204182982E-1,5.482101440E-1,6.130723953E-1,8.826437615E-1
5.263147355E0,-2.021132469E0,7.673718929E-1,1.422340393E0,2.587834669E0
5.268161886E0,-1.422164202E0,6.109464169E-1,1.183216095E0,1.948283057E0
5.273176365E0,-9.943097830E-1,6.619837284E-1,6.912403107E-1,1.380104187E0
5.278190897E0,-9.104064703E-1,6.382794380E-1,8.553009033E-1,1.402775897E0
5.283205376E0,-1.138411760E0,4.155359268E-1,9.835076332E-1,1.560749406E0
5.288219855E0,-1.925637126E-1,4.694166183E-1,4.831171036E-1,7.005960896E-1
5.293234386E0,-4.786435664E-1,2.363057137E-1,6.839313507E-1,8.675840861E-1
5.298248865E0,-1.137437582E0,6.507196426E-1,9.684953690E-1,1.629473408E0
5.303263345E0,-3.976747394E-1,6.371827126E-1,6.952247620E-1,1.023466891E0
5.308277876E0,-2.061505467E-1,5.069065094E-1,3.551282883E-1,6.523560058E-1
5.313292355E0,-1.256114244E0,6.343722343E-1,9.888868332E-1,1.719926829E0
5.318306886E0,-4.278952479E-1,4.935276508E-1,7.779064178E-1,1.015776688E0
5.323321365E0,-7.003856897E-1,2.637982368E-1,4.837408066E-1,8.911424084E-1
5.328335897E0,-1.381149292E0,5.167908669E-1,1.005540371E0,1.784869072E0
5.333350376E0,-8.638046980E-1,3.411719799E-1,7.161560059E-1,1.172789965E0
5.338364855E0,-7.726237178E-1,4.572184086E-1,4.917755127E-1,1.023640189E0
5.343379386E0,-1.209508419E0,4.366769791E-1,8.200702667E-1,1.525159874E0
5.348393865E0,-1.409330249E0,4.662787914E-1,8.370971680E-1,1.704218099E0
5.353408397E0,-7.912404537E-1,4.792029858E-1,5.168638229E-1,1.059643888E0
5.358422876E0,-1.156421542E0,5.448830128E-1,5.818929672E-1,1.404566733E0
5.363437355E0,-1.368354440E0,5.384547710E-1,6.612596512E-1,1.612324948E0
5.368451886E0,-1.051999092E0,4.148504734E-1,4.033174515E-1,1.200611499E0
5.373466365E0,-1.239736199E0,4.657976627E-1,4.948778152E-1,1.413795374E0
5.378480897E0,-1.628198385E0,5.596740246E-1,7.895383835E-1,1.894105555E0
5.383495376E0,-9.166295528E-1,6.437830925E-1,5.720996857E-1,1.257761686E0
5.388509855E0,-8.322481513E-1,6.154797077E-1,4.409465790E-1,1.125116057E0
5.393524386E0,-1.391107798E0,7.087552547E-1,8.409175873E-1,1.773318162E0
5.398538865E0,-7.893558741E-1,4.692919254E-1,2.467441559E-1,9.508944661E-1
5.403553345E0,-8.108201981E0,3.620948792E-1,-3.398926735E0,8.799247412E0
5.408567876E0,-4.930993652E1,-5.115222454E0,7.541742325E0,5.014492216E1
5.413582355E0,-6.499491119E1,-1.311882973E1,-1.186560631E0,6.631628835E1
5.418596886E0,-4.163245010E1,-1.029856682E1,-1.756288147E1,4.634410627E1
5.423611365E0,-4.158807373E1,-1.148676300E1,-8.179718018E0,4.391379496E1
5.428625897E0,-1.411679459E1,-5.341866016E0,-1.015406513E1,1.819132927E1
5.433640376E0,2.148939514E1,-3.400249004E0,-6.881993294E0,2.281923812E1
5.438654855E0,5.947781372E1,-2.416611910E0,-1.092339039E1,6.052082944E1
5.443669386E0,7.542318726E1,-1.362394094E0,-1.313654804E1,7.657076588E1
5.448683865E0,2.226867104E1,-6.492209435E-2,9.888273239E0,2.436546474E1
5.453698345E0,-3.463297367E0,-3.480496645E0,9.198378563E0,1.042681417E1
5.458712876E0,-1.787219048E1,1.250008821E0,-3.351088524E0,1.822656053E1
5.463727355E0,-5.502082443E1,9.738254547E-2,9.728686333E0,5.587439434E1
5.468741886E0,-6.544853973E1,-2.125734091E0,1.816217041E1,6.795509203E1
5.473756365E0,-2.128364086E0,2.711688280E0,-2.696093559E0,4.376312088E0
5.478770845E0,7.769835949E0,-1.688311338E0,6.007354259E0,9.965392669E0
5.483785376E0,1.543971539E1,1.829864383E0,4.556974888E0,1.620182814E1
5.488799855E0,5.038434505E0,-9.385538101E-1,-4.956103325E0,7.129492667E0
5.493814386E0,-6.057788849E0,-1.138893127E0,1.406685352E0,6.322392504E0
5.498828865E0,-1.968298912E1,-3.023828983E0,5.387216568E0,2.062972866E1
5.503843345E0,1.735409498E0,4.785935879E-1,6.215137005E0,6.470597031E0
5.508857876E0,2.486880302E0,-7.478237152E-1,-2.435597420E0,3.560329864E0
5.513872355E0,6.318007469E0,2.010078430E0,3.604232311E0,7.546398096E0
5.518886886E0,3.182038879E1,3.284587145E0,-7.644389153E0,3.289015569E1
5.523901365E0,3.000782776E1,1.372550368E0,-2.682871819E0,3.015877024E1
5.528915897E0,-6.037385464E0,9.804377556E-1,1.096078777E1,1.255189826E1
5.533930376E0,-1.059131527E1,-1.757413626E0,2.980764866E0,1.114223591E1
5.538944855E0,-9.628018379E0,-1.334107161E0,-5.890779495E0,1.136573196E1
5.543959386E0,-3.791996241E0,-4.270294189E0,-3.581729889E0,6.741174746E0
5.548973865E0,-6.503582954E0,-1.468518734E0,6.535501480E-1,6.699273566E0
5.553988345E0,2.389195251E1,-4.923962116E0,-1.995044708E1,3.151334855E1
5.559002876E0,1.698310089E1,-6.527075291E0,-9.818785667E0,2.067454908E1
5.564017355E0,7.384676456E0,-3.916453838E0,-7.144062996E0,1.099589438E1
5.569031886E0,4.447676659E0,-7.760515213E-1,-1.281195831E1,1.358419521E1
5.574046365E0,-1.396293736E1,-1.179620743E0,1.890675545E0,1.413965271E1
5.579060845E0,-1.204344749E1,3.001625538E-1,-6.396827698E-1,1.206415845E1
5.584075376E0,-1.606724858E-1,1.020383835E0,7.494020462E-1,1.276167013E0
5.589089855E0,5.919288158E0,-1.911537647E-1,4.447739601E0,7.406544378E0
5.594104386E0,6.966262817E0,2.627730370E-2,-1.097906113E0,7.052297921E0
5.599118865E0,1.420780945E1,4.700350761E-2,-7.246255875E-1,1.422635375E1
5.604133345E0,-3.397092342E0,-3.487632275E-1,6.652858734E0,7.478128209E0
5.609147876E0,-8.133679390E0,1.059896111E0,8.974967957E0,1.215854309E1
5.614162355E0,-1.541901231E0,-2.059901953E-1,3.529033661E0,3.856678616E0
5.619176886E0,2.772695065E0,-5.700883865E-1,1.826297283E0,3.368709019E0
5.624191365E0,1.035176218E-1,5.903499722E-1,5.320359707E0,5.354013112E0
5.629205845E0,8.955723763E0,-3.119208813E-1,-1.413183212E-1,8.962268330E0
5.634220376E0,1.149454880E1,4.046523094E0,4.207725525E0,1.289201130E1
5.639234855E0,8.497204781E-1,2.550097942E0,3.831641674E0,4.680438262E0
5.644249334E0,8.679366112E-1,2.911897659E0,2.178154945E0,3.738558667E0
5.649263865E0,-1.945474029E0,1.195257068E0,-3.859014511E-1,2.315691815E0
5.654278345E0,-1.101781654E1,1.581988692E0,8.493769646E0,1.400139609E1
5.659292876E0,-7.202811241E0,-3.455755711E-1,3.501232147E0,8.016142389E0
5.664307355E0,-1.246275139E1,-1.186387777E0,4.728232861E0,1.338222232E1
5.669321834E0,-1.563902855E1,-1.778185368E0,-5.572052002E-1,1.574965507E1
5.674336365E0,-9.115863800E0,-2.160587311E0,-7.694345474E0,1.212312099E1
5.679350845E0,-1.236262512E1,-2.360232353E0,-5.595472336E0,1.377368895E1
5.684365376E0,-9.469440460E0,-2.134005070E0,-2.561838150E0,1.003928757E1
5.689379855E0,4.222227097E0,-5.528404713E-1,-2.644009590E0,5.012346851E0
5.694394334E0,2.083655930E1,3.702139854E-1,-6.496685982E0,2.182902175E1
5.699408865E0,1.881912041E1,2.623251677E0,-1.052584648E0,1.903020433E1
5.704423345E0,1.061015224E1,1.966938019E0,1.025405884E0,1.083954026E1
5.709437824E0,5.553604603E0,2.446035385E0,-2.080030441E-1,6.071974840E0
5.714452355E0,-6.391474724E0,1.464787483E0,4.069443226E0,7.717312983E0
5.719466834E0,-1.321409512E1,9.347025156E-1,7.147640705E0,1.505240001E1
5.724481313E0,2.713517904E0,5.597778559E-1,-5.666542053E-1,2.828007718E0
5.729495845E0,-5.918387413E0,4.303809404E-1,2.200288773E-1,5.938093131E0
5.734510324E0,-1.248160934E1,9.838149548E-1,4.691570282E0,1.337046354E1
5.739524855E0,-5.785787106E0,-1.044847965E0,-2.232738495E0,6.289050873E0
5.744539334E0,-9.366423488E-1,-8.894193172E-1,-4.258124352E0,4.449717812E0
5.749553865E0,-6.599803448E0,-1.015372753E0,-1.004596710E0,6.752599642E0
5.754568345E0,1.360716057E1,-9.719133377E-1,-9.453744888E0,1.659737108E1
5.759582824E0,1.239741421E1,9.859272242E-1,-5.011928558E0,1.340848088E1
5.764597355E0,-3.012737274E0,1.028537512E0,1.692870140E0,3.605590743E0
5.769611834E0,2.543297529E0,1.920987844E0,8.877763748E-1,3.308580287E0
5.774626313E0,4.094828606E0,3.871216774E0,1.814937592E-2,5.635092725E0
5.779640845E0,-7.383791924E0,1.650167465E0,4.467091084E0,8.786258509E0
5.784655324E0,-2.825162411E0,9.764571190E-1,6.902027130E-1,3.067799038E0
5.789669855E0,-1.422850847E0,5.645896196E-1,-1.454143524E0,2.111350128E0
5.794684334E0,-5.546488285E0,-3.687787056E-2,1.184620857E0,5.671703346E0
5.799698813E0,-4.955072999E-1,1.404944658E-1,1.076091766E0,1.192996089E0
5.804713345E0,3.955794334E0,-7.177972794E-1,-9.581470490E-2,4.021532321E0
5.809727824E0,1.547544241E0,-5.445638895E-1,8.331680298E-2,1.642676078E0
5.814742303E0,3.724579334E0,-4.692180157E-1,-3.463286400E0,5.107544366E0
5.819756834E0,-3.064421892E0,-2.957185507E-1,-1.068872452E0,3.258929167E0
5.824771313E0,-4.377795219E0,7.158374786E-1,1.128668785E0,4.577270749E0
5.829785845E0,4.611016810E-1,6.416772604E-1,-1.970405579E-1,8.143644443E-1
5.834800324E0,-1.373581648E0,9.400714636E-1,-8.911037445E-2,1.666853790E0
5.839814803E0,2.019761562E0,4.051084518E-1,-1.545578003E0,2.575337063E0
5.844829334E0,2.294757366E0,1.097913027E0,-1.669090271E0,3.042562525E0
5.849843813E0,-2.033851624E0,6.700351238E-1,-2.961254120E-1,2.161756173E0
5.854858293E0,5.562027693E-1,4.540096521E-1,4.010190964E-1,8.223761916E-1
5.859872824E0,3.761758327E0,2.007598877E-1,-1.298220634E0,3.984533481E0
5.864887303E0,5.958992243E-1,1.071373224E-1,1.763404846E0,1.864449233E0
5.869901834E0,-1.558098555E0,-9.381912947E-1,4.795713425E-1,1.880920701E0
5.874916313E0,-3.107550144E0,-5.993252993E-1,1.509253502E0,3.506266511E0
5.879930793E0,-7.307209015E0,-2.027232647E-1,4.519283772E0,8.594203053E0
5.884945324E0,-4.061732292E0,1.299203634E-1,1.908677101E0,4.489721238E0
5.889959803E0,2.796199322E0,7.675465345E-1,-1.517391205E0,3.272664724E0
5.894974334E0,-6.025834084E-1,1.047447681E0,2.271385193E-1,1.229571192E0
5.899988813E0,9.944123626E-1,1.243107319E0,1.396827698E-1,1.598024727E0
5.905003293E0,-1.690014601E-1,1.969046235E0,1.376266479E-1,1.981071847E0
5.910017824E0,-3.659037590E0,1.443592548E0,1.777875423E0,4.316637181E0
5.915032303E0,7.950009704E-1,4.758855104E-1,-1.269555092E0,1.571707254E0
5.920046782E0,8.753831863E0,3.316107988E-1,-6.256372452E0,1.076483787E1
5.925061313E0,2.699983120E0,-3.413290977E-1,-2.915276527E0,3.988138868E0
5.930075793E0,-2.130634785E0,-6.742353439E-1,6.715393066E-1,2.333487288E0
5.935090324E0,6.135834455E-1,-1.629350185E-1,-1.015169144E0,1.197330721E0
5.940104803E0,-1.749533415E0,-8.087205887E-1,-7.864427567E-1,2.081679219E0
5.945119282E0,-2.611256361E0,3.649365902E-2,1.121764183E0,2.842243208E0
5.950133813E0,3.939592123E0,-5.447382927E-1,-2.385475159E0,4.637630606E0
5.955148293E0,-6.028367281E-1,2.838476896E-1,1.224355698E-1,6.774747969E-1
5.960162772E0,-7.639210701E0,5.808844566E-1,4.360495090E0,8.815264280E0
5.965177303E0,-2.811694860E0,3.817744255E-1,1.118347168E0,3.049931161E0
5.970191782E0,8.306508064E-1,1.065485716E0,-6.144266129E-1,1.484170016E0
5.975206313E0,-3.412070990E0,7.644405365E-1,1.719581127E0,3.896608400E0
5.980220793E0,3.946109772E0,3.479006290E-1,-1.819821358E0,4.359422777E0
5.985235272E0,2.818359375E0,8.014200926E-1,-3.917160034E-1,2.956157161E0
5.990249803E0,-2.985332012E0,1.318179369E-1,2.050599098E0,3.624160572E0
5.995264282E0,1.272461534E0,-2.595156431E-1,-1.294116020E0,1.833369302E0
6.000278761E0,2.762748241E0,1.104333401E-1,-2.122215271E0,3.485508718E0
6.005293293E0,-3.604101181E0,8.979320526E-2,1.338102341E0,3.845533255E0
6.010307772E0,3.638417125E-1,-2.796133757E-1,-7.840995789E-1,9.085023837E-1
6.015322251E0,-1.460636020E0,4.090580940E-1,3.382549286E-1,1.554092180E0
6.020336782E0,-5.938578606E0,7.165098190E-2,2.119218826E0,6.305786085E0
6.025351261E0,1.883747578E-1,6.496098042E-1,-5.348291397E-1,8.622761482E-1
6.030365793E0,2.620036602E0,1.402299643E0,-9.094667435E-1,3.107758974E0
6.035380272E0,-2.554867268E0,4.692738056E-1,1.827460289E0,3.176031449E0
6.040394751E0,1.693417788E0,1.786875725E-1,-3.518209457E-1,1.738784354E0
6.045409282E0,2.855097532E0,3.483943939E-1,-1.231998444E0,3.129022329E0
6.050423761E0,-1.594640136E0,-6.802625656E-1,1.993207932E-1,1.745096874E0
6.055438240E0,1.894769430E0,-1.696835756E-1,-1.289658546E0,2.298295646E0
6.060452772E0,2.772620440E0,-3.872330189E-1,-2.633213043E0,3.843329864E0
6.065467251E0,-4.075841427E0,-8.285738230E-1,6.782770157E-1,4.214152065E0
6.070481782E0,-1.704401612E0,-3.896360397E-1,-7.816896439E-1,1.915160515E0
6.075496261E0,-3.479700089E-1,-7.902246714E-1,-1.389554977E0,1.635971025E0
6.080510740E0,-5.658490181E0,-3.910568953E-1,1.857819557E0,5.968494796E0
6.085525272E0,1.041075706E0,-4.117093086E-1,-1.426751137E0,1.813549555E0
6.090539751E0,2.865194082E0,5.828318596E-1,-4.207334518E-1,2.953988277E0
6.095554230E0,-1.816781998E0,2.376422882E-1,2.364812374E0,2.991572872E0
6.100568761E0,9.720733166E-1,2.418907881E-1,7.785301208E-1,1.268679170E0
6.105583240E0,1.867969036E0,6.539468765E-1,2.263259888E-1,1.992028687E0
6.110597772E0,-2.086196661E0,-1.329030991E-1,1.963011742E0,2.867628783E0
6.115612251E0,1.558637381E0,1.056030989E-1,-8.744812012E-2,1.564656407E0
6.120626730E0,-8.566749096E-2,-2.900886536E-2,5.539693832E-1,5.613042943E-1
6.125641261E0,-4.158102512E0,-2.154824734E-1,2.136673927E0,4.679917165E0
6.130655740E0,-9.241750240E-1,-1.109051704E-2,-1.179580688E-1,9.317384722E-1
6.135670220E0,-1.877385378E0,-9.234964848E-2,-3.716621399E-1,1.916047249E0
6.140684751E0,-2.395448208E0,5.355081558E-1,5.157604218E-1,2.508176611E0
6.145699230E0,2.226175070E0,6.337618828E-1,-1.460237503E0,2.736750469E0
6.150713761E0,3.700478077E-1,9.854226708E-1,3.030490875E-1,1.095368417E0
6.155728240E0,-9.984261990E-1,6.146236658E-1,7.326116562E-1,1.382511108E0
6.160742720E0,1.636250734E0,6.442186832E-1,-2.464925766E0,3.027902444E0
6.165757251E0,4.518688202E0,1.004542589E0,-3.509038925E0,5.808700634E0
6.170771730E0,2.571898699E-1,1.267270088E0,-1.087980270E-1,1.297673733E0
6.175786209E0,-1.026375651E0,8.078590631E-1,-1.771583557E-1,1.318130618E0
6.180800740E0,-2.113333702E0,4.023249149E-1,-1.108114243E0,2.419909471E0
6.185815220E0,-1.193548203E0,6.868827343E-1,-1.344422340E0,1.924535433E0
6.190829751E0,-2.783219814E0,1.075460196E0,-1.599369049E-1,2.988060739E0
6.195844230E0,-1.861903787E0,1.284368515E0,6.265153885E-1,2.347085368E0
6.200858709E0,-1.810193658E0,1.198202848E0,1.558569908E0,2.672383076E0
6.205873240E0,-1.633327723E0,3.250024319E-1,-1.595497131E-3,1.665349385E0
6.210887720E0,-1.673273444E0,-9.336948395E-3,-1.007059097E0,1.952971895E0
6.215902199E0,-3.084894419E-1,1.823911667E-1,-7.867517471E-1,8.645291117E-1
6.220916730E0,2.656798363E0,6.278222799E-1,-1.632935524E0,3.181071640E0
6.225931209E0,3.424768448E0,5.521366596E-1,-1.306780815E0,3.706962356E0
6.230945688E0,-9.631452560E-1,9.275757074E-1,2.455892563E-1,1.359543879E0
6.235960220E0,7.600595951E-1,1.116522670E0,-9.541721344E-1,1.653710350E0
6.240974699E0,-1.696004510E0,1.371436357E0,1.539268494E-1,2.186541208E0
6.245989178E0,-5.612496376E0,9.696514606E-1,2.035134315E0,6.048314741E0
6.251003709E0,-9.104436636E-1,8.658406734E-1,4.325561523E-1,1.328793649E0
6.256018188E0,1.094228029E-1,8.958213329E-1,6.678762436E-1,1.122732331E0
6.261032720E0,-2.047150373E0,5.306971073E-1,1.866944313E0,2.820983009E0
6.266047199E0,1.048959374E0,3.269933462E-1,-5.221767426E-1,1.216515092E0
6.271061678E0,-9.374978542E-1,5.772942305E-1,4.410448074E-1,1.186040209E0
6.276076209E0,-3.672895432E0,6.080038548E-1,2.072512627E0,4.260884665E0
6.281090688E0,4.763293266E-2,7.643327713E-1,-4.846525192E-1,9.062899900E-1
6.286105168E0,4.504024982E-2,1.075346589E0,-1.005020142E-1,1.080971584E0
6.291119699E0,-3.977447987E0,8.065137863E-1,2.004998207E0,4.526651608E0
6.296134178E0,-4.519909620E-1,6.480110884E-1,-6.622419357E-1,1.030911530E0
6.301148657E0,-1.322757363E0,8.415476084E-1,-5.673427582E-1,1.667263394E0
6.306163188E0,-2.433877468E0,1.332909822E0,4.767208099E-1,2.815611986E0
6.311177668E0,1.719303608E0,1.606587768E0,-1.550465584E0,2.817990894E0
6.316192199E0,1.774521947E0,1.106982946E0,-1.069594383E0,2.349121438E0
6.321206678E0,-1.531897187E0,1.091246128E0,3.275976181E-1,1.909148319E0
6.326221157E0,3.122999191E0,6.886770725E-1,-2.386807442E0,3.990519994E0
6.331235688E0,1.831138134E-1,2.368352413E-1,-1.047294617E0,1.089241761E0
6.336250168E0,-2.573057890E0,7.737784386E-1,2.505064011E-1,2.698539130E0
6.341264647E0,1.059060097E-1,5.136270523E-1,-1.255515099E0,1.360642126E0
6.346279178E0,-1.945356488E0,7.790778875E-1,-8.665370941E-2,2.097351446E0
6.351293657E0,-3.583454609E0,9.008371830E-1,9.325742722E-1,3.810820035E0
6.356308136E0,-1.001605630E0,7.240985632E-1,-1.226749420E-1,1.242007129E0
6.361322668E0,-1.458998799E0,9.756890535E-1,4.874744415E-1,1.821614108E0
6.366337147E0,-1.308988810E0,6.827020645E-1,7.261266708E-1,1.645233647E0
6.371351678E0,-4.427083731E-1,1.014804125E0,4.790840149E-1,1.206374572E0
6.376366157E0,-3.543721437E-1,7.323950529E-1,4.211215973E-1,9.161471113E-1
6.381380636E0,-3.855243921E-1,5.651093721E-1,4.971075058E-1,8.456320309E-1
6.386395168E0,-5.662736893E-1,4.601161480E-1,4.939517975E-1,8.811135790E-1
6.391409647E0,-8.290326595E-2,2.769775391E-1,-5.198192596E-2,2.937543690E-1
6.396424126E0,-1.065431833E-1,3.862597942E-1,-4.204702377E-1,5.808126198E-1
6.401438657E0,-1.331730485E0,3.555449247E-1,-1.660346985E-2,1.378475228E0
6.406453136E0,-1.711950064E0,6.607123613E-1,3.274536133E-2,1.835316350E0
6.411467615E0,-3.594937325E-1,4.351743460E-1,-7.646865845E-1,9.504514862E-1
6.416482147E0,-1.050039411E0,8.029341698E-1,3.444700241E-1,1.365996209E0
6.421496626E0,1.433837414E-2,5.620994568E-1,2.641830444E-1,6.212520175E-1
6.426511105E0,1.383086443E-1,4.800541401E-1,9.578132629E-2,5.086799789E-1
6.431525636E0,-6.481461525E-1,1.473587751E-1,3.774290085E-1,7.643694788E-1
6.436540115E0,-1.044074893E0,7.460284233E-2,3.146629333E-1,1.093009940E0
6.441554647E0,-4.733736515E-1,2.433102131E-1,-1.104450226E-2,5.323574502E-1
6.446569126E0,-1.062765121E0,5.367025137E-1,3.688631058E-1,1.246426605E0
6.451583605E0,-1.000677109E0,5.503792763E-1,2.986192703E-1,1.180442922E0
6.456598136E0,-8.103816509E-1,2.748756409E-1,-2.687892914E-1,8.969519058E-1
6.461612615E0,-8.250718117E-1,9.736263752E-2,-5.342779160E-1,9.877630632E-1
6.466627095E0,-1.919691920E0,-5.909907818E-2,8.288383484E-2,1.922389008E0
6.471641626E0,-1.043705940E0,-2.185691595E-1,-3.668298721E-1,1.127678466E0
6.476656105E0,-3.667104244E-2,-4.860488176E-1,-7.131500244E-1,8.638120026E-1
6.481670584E0,-1.087524652E0,-4.211330414E-1,4.575538635E-2,1.167114589E0
6.486685115E0,3.599717617E-1,-2.624181509E-1,-2.027988434E-1,4.894592179E-1
6.491699595E0,6.856205463E-1,1.097679138E-2,6.179809570E-4,6.857086884E-1
6.496714074E0,-1.126958847E0,-1.311687231E-1,1.246155739E0,1.685273154E0
6.501728605E0,2.670843601E-1,8.060240746E-2,4.910697937E-1,5.647834504E-1
6.506743084E0,4.771875143E-1,3.364881277E-1,3.102827072E-1,6.612167136E-1
6.511757615E0,-1.484988809E0,1.471329927E-1,9.304437637E-1,1.758569156E0
6.516772095E0,8.762550354E-2,4.238790274E-1,-2.555723190E-1,5.026617839E-1
6.521786574E0,1.699571609E-1,1.869026423E-1,-3.190507889E-1,4.069538550E-1
6.526801105E0,-2.389825583E0,4.116009474E-1,9.948148727E-1,2.621133016E0
6.531815584E0,-1.217445493E0,-1.383781433E-2,-5.718994141E-2,1.218866565E0
6.536830063E0,-8.439432383E-1,-5.511463881E-1,-9.569568634E-1,1.389880919E0
6.541844595E0,-2.507262707E0,-5.814925432E-1,-1.478834152E-1,2.578055345E0
6.546859074E0,-5.804489851E-1,-8.716932535E-1,-7.261571884E-1,1.274391782E0
6.551873553E0,-6.965231895E-2,-5.113813877E-1,-7.937917709E-1,9.468198059E-1
6.556888084E0,3.616274595E-1,-6.756757498E-1,-5.886631012E-1,9.663521020E-1
6.561902563E0,6.967420578E-1,-4.209940434E-1,-1.156444550E-1,8.222281433E-1
6.566917043E0,9.526376128E-1,-2.180786133E-1,-3.990640640E-1,1.055617748E0
6.571931574E0,-6.524281502E-1,-2.482633591E-1,3.673286438E-1,7.888139953E-1
6.576946053E0,-6.062664986E-1,1.932024956E-2,8.122167587E-1,1.013720081E0
6.581960532E0,-1.073506355E0,-1.591749191E-1,7.420511246E-1,1.314683392E0
6.586975063E0,-2.283054352E0,-1.570250988E-1,1.362655640E0,2.663423445E0
6.591989543E0,-1.538681388E0,-2.034993172E-1,8.418016434E-1,1.765667690E0
6.597004022E0,-4.919975996E-1,-3.608773947E-1,-3.146448135E-1,6.865096436E-1
6.602018553E0,-6.061491966E-1,-2.372757196E-1,-2.193326950E-1,6.868940579E-1
6.607033032E0,3.657984734E-2,-2.921961546E-1,-3.536653519E-1,4.602128411E-1
6.612047563E0,1.033322811E0,-2.052487135E-1,-1.099846840E0,1.523005626E0
6.617062043E0,4.725031853E-1,1.120913029E-2,-6.066589355E-1,7.690383402E-1
6.622076522E0,-6.809165478E-1,1.423476934E-1,1.086111069E-1,7.040643319E-1
6.627091053E0,-9.411426783E-1,-3.337428570E-1,1.285457611E-2,9.986486247E-1
6.632105532E0,-1.543743014E0,-4.625763893E-1,1.732826233E-1,1.620847395E0
6.637120011E0,-2.372849226E0,-3.705017567E-1,5.490570068E-1,2.463564206E0
6.642134543E0,-8.291094303E-1,-3.158744574E-1,-1.632623672E-1,9.021384155E-1
6.647149022E0,-6.306960583E-1,-2.860026360E-1,-6.162929535E-2,6.952504554E-1
6.652163501E0,-5.050882101E-1,-2.185808420E-1,6.645679474E-2,5.543538491E-1
6.657178032E0,6.000413895E-1,-2.833313942E-1,-4.390296936E-1,7.956591103E-1
6.662192511E0,-4.093718529E-2,-7.291111946E-1,-3.269309998E-1,8.001017847E-1
6.667206990E0,-1.106455326E0,-6.791560650E-1,2.966289520E-1,1.331722600E0
6.672221522E0,-7.677915096E-1,-6.602696180E-1,2.763175964E-2,1.013026794E0
6.677236001E0,-9.309936762E-1,-6.593641043E-1,2.607479095E-1,1.170256262E0
6.682250532E0,-1.476531863E0,-8.812570572E-2,1.153259277E0,1.875611752E0
6.687265011E0,-1.227350473E0,-3.127568960E-1,1.013837814E0,1.622366535E0
6.692279490E0,-1.604565144E0,-1.539604664E-1,1.146996498E0,1.978366521E0
6.697294022E0,-1.136873484E0,-5.012449026E-1,7.560672760E-1,1.454429612E0
6.702308501E0,-1.024031281E0,-2.131576538E-1,7.456178665E-1,1.284531920E0
6.707322980E0,-2.730751038E-2,-1.607422829E-1,3.739652634E-1,4.079629883E-1
6.712337511E0,1.952532530E-1,-1.025229692E-1,3.445882797E-1,4.091159671E-1
6.717351990E0,-2.036188841E-1,-8.959031105E-2,5.829153061E-1,6.239209308E-1
6.722366470E0,-6.504137516E-1,-2.584811449E-1,6.919412613E-1,9.841916783E-1
6.727381001E0,-5.651694536E-1,-4.873142242E-1,2.867050171E-1,7.994319429E-1
6.732395480E0,-1.424566150E0,-4.745566845E-1,1.713466644E-1,1.511275104E0
6.737409959E0,-9.727238417E-1,-3.935345411E-1,-4.677619934E-1,1.148852641E0
6.742424490E0,-1.144988298E0,5.616581440E-2,-4.654607773E-1,1.237257668E0
6.747438970E0,-1.863683701E0,3.460526466E-2,-6.407833099E-2,1.865106027E0
6.752453449E0,-1.520431280E0,-9.471571445E-2,-4.563522339E-2,1.524061980E0
6.757467980E0,-7.734377384E-1,4.035627842E-2,7.821941376E-2,7.784297278E-1
6.762482459E0,-2.928918600E-1,-3.810207844E-1,-7.511711121E-2,4.864206618E-1
6.767496938E0,2.174735069E-1,-4.206091166E-1,-3.856935501E-1,6.107096444E-1
6.772511470E0,3.282949924E-1,-2.147784233E-1,-1.577663422E-1,4.228446428E-1
6.777525949E0,-3.985013962E-1,-7.866847515E-2,2.684650421E-1,4.868937980E-1
6.782540428E0,-4.239256382E-1,1.476510763E-1,4.240875244E-1,6.175467719E-1
6.787554959E0,-1.084587097E0,-1.264172792E-1,7.994413376E-1,1.353298545E0
6.792569438E0,-2.092780590E0,-1.478183270E-1,1.109867096E0,2.373475474E0
6.797583918E0,-2.001870394E0,-4.543125629E-1,7.408924103E-1,2.182385516E0
6.802598449E0,-1.523488641E0,-4.706069231E-1,4.200611115E-1,1.648920814E0
6.807612928E0,-1.451971412E0,-2.038866282E-1,5.537309647E-1,1.567293437E0
6.812627407E0,-5.016909838E-1,-2.418757677E-1,1.036462784E-1,5.665159144E-1
6.817641938E0,1.549057961E-1,3.865480423E-3,-4.297399521E-1,4.568229132E-1
6.822656418E0,-1.421213150E-2,-1.507544518E-2,-3.888120651E-1,3.893636805E-1
6.827670949E0,-9.910700321E-1,-8.134186268E-2,2.090530396E-1,1.016139499E0
6.832685428E0,-9.195624590E-1,-8.507990837E-2,2.155380249E-1,9.483092043E-1
6.837699907E0,-1.144127011E0,-4.991436005E-2,2.241840363E-1,1.166951817E0
6.842714438E0,-1.210925102E0,2.865658998E-1,4.265365601E-1,1.315444052E0
6.847728918E0,-5.676361322E-1,1.893937588E-1,1.768341064E-1,6.239800283E-1
6.852743397E0,-9.644104242E-1,9.636437893E-2,2.215547562E-1,9.942132919E-1
6.857757876E0,-9.165751934E-1,-3.341543674E-2,-5.865764618E-2,9.190578850E-1
6.862772407E0,1.181499958E-1,-1.773381233E-2,-6.037168503E-1,6.154250116E-1
6.867786886E0,-3.809088469E-1,7.566475868E-2,-2.799196243E-1,4.787188125E-1
6.872801418E0,-7.005871534E-1,-1.310402155E-1,-1.597881317E-2,7.129159979E-1
6.877815897E0,-7.997138500E-1,-1.590735912E-1,-4.169340134E-1,9.157950758E-1
6.882830376E0,-1.806475639E0,-1.703356504E-1,-6.194877625E-2,1.815545681E0
6.887844907E0,-2.089428425E0,1.540994644E-2,3.353681564E-1,2.116227873E0
6.892859386E0,-2.123271465E0,2.443211079E-1,5.216827393E-1,2.200028954E0
6.897873865E0,-1.673900247E0,3.333926201E-2,4.876813889E-1,1.743813832E0
6.902888397E0,-1.334923029E0,1.550959349E-1,7.908163071E-1,1.559315450E0
6.907902876E0,-5.953035355E-1,-8.214831352E-2,4.552974701E-1,7.539432545E-1
6.912917355E0,-2.915049791E-1,-2.904189825E-1,9.384918213E-2,4.220497687E-1
6.917931886E0,-5.239164829E-1,-5.064642429E-2,4.476985931E-1,6.910047552E-1
6.922946365E0,-1.255944967E-1,7.008552551E-2,2.056932449E-1,2.509893813E-1
6.927960845E0,-2.391287088E-1,1.047966480E-1,7.866191864E-2,2.726766845E-1
6.932975376E0,-1.289456010E0,-7.323729992E-2,4.538345337E-1,1.368950798E0
6.937989855E0,-1.226454616E0,-3.167569637E-2,2.978105545E-1,1.262491743E0
6.943004334E0,-1.731482625E0,-2.105635405E-1,2.518615723E-1,1.762328953E0
6.948018865E0,-1.905769706E0,-8.604383469E-2,5.599308014E-1,1.988186162E0
6.953033345E0,-9.779150486E-1,-1.938858032E-1,4.997730255E-2,9.982020225E-1
6.958047824E0,-6.845235825E-1,-1.377098560E-1,8.600234985E-2,7.035147074E-1
6.963062355E0,-4.681825638E-1,-4.603632689E-1,1.150350571E-1,6.666050680E-1
6.968076834E0,-2.213096619E-1,-5.490609407E-1,5.556106567E-3,5.920107714E-1
6.973091313E0,7.304966450E-2,-4.150205851E-1,2.528667450E-2,4.221584482E-1
6.978105845E0,-1.756268740E-1,-3.592761755E-1,1.595840454E-1,4.305708266E-1
6.983120324E0,-6.825796366E-1,-1.469413042E-1,3.078680038E-1,7.630789048E-1
6.988134803E0,-9.903248549E-1,-2.012406588E-1,1.161155701E-1,1.017213816E0
6.993149334E0,-1.430762291E0,3.948926926E-3,3.498325348E-1,1.472915181E0
6.998163813E0,-1.908146262E0,-7.492768764E-2,6.021032333E-1,2.002289844E0
7.003178293E0,-1.648775101E0,-1.632997990E-1,5.360975266E-1,1.741415147E0
7.008192824E0,-5.890798569E-1,-3.668650389E-1,1.069021225E-1,7.021631565E-1
7.013207303E0,-1.233171225E-1,-4.103851318E-1,-3.724098206E-3,4.285288065E-1
7.018221782E0,9.255492687E-2,-4.137974977E-1,5.339908600E-2,4.273713210E-1
7.023236313E0,2.965278625E-1,-2.595907450E-1,6.739616394E-2,3.998229246E-1
7.028250793E0,-3.844703436E-1,-1.362764835E-1,4.662628174E-1,6.195076593E-1
7.033265272E0,-3.072098494E-1,7.823336124E-2,2.596817017E-1,4.097962134E-1
7.038279803E0,-4.950097799E-1,5.594611168E-3,1.010894775E-1,5.052574239E-1
7.043294282E0,-1.468399048E0,2.503752708E-3,5.355176926E-1,1.563003913E0
7.048308761E0,-1.655903578E0,1.522315741E-1,5.604982376E-1,1.754807507E0
7.053323293E0,-1.438463688E0,-6.855487823E-3,2.649669647E-1,1.462679825E0
7.058337772E0,-1.336042166E0,-3.514873981E-2,1.947517395E-1,1.350619244E0
7.063352251E0,-5.166302919E-1,-2.751874924E-1,-7.112598419E-2,5.896557641E-1
7.068366782E0,-8.337867260E-2,-4.994599819E-1,-2.885541916E-1,5.828171223E-1
7.073381261E0,-2.329480648E-2,-4.349334240E-1,-2.115097046E-1,4.841963305E-1
7.078395740E0,-1.425763369E-1,-4.803334475E-1,-1.632938385E-1,5.269849241E-1
7.083410272E0,-4.098333120E-1,-2.482210398E-1,3.785037994E-2,4.806346632E-1
7.088424751E0,-7.192884684E-1,-2.673785686E-1,4.394855499E-1,8.843159776E-1
7.093439230E0,-1.422400594E0,-4.900388718E-1,6.971197128E-1,1.658112613E0
7.098453761E0,-1.356888413E0,-5.468831062E-1,6.075706482E-1,1.584098921E0
7.103468240E0,-8.033926487E-1,-4.762477875E-1,3.840370178E-1,1.009819852E0
7.108482720E0,-7.954864502E-1,-2.947683334E-1,6.889715195E-1,1.092871821E0
7.113497251E0,-1.961901188E-1,-1.112639904E-1,7.726135254E-1,8.048614153E-1
7.118511730E0,5.996705294E-1,-1.519291401E-1,3.949060440E-1,7.339196080E-1
7.123526209E0,-3.100860119E-2,-3.626569510E-1,3.407764435E-1,4.986082449E-1
7.128540740E0,-9.894275665E-2,-3.547133207E-1,3.770923615E-2,3.701799501E-1
7.133555220E0,-5.193464756E-1,-2.058532238E-1,-1.349506378E-1,5.747242696E-1
7.138569699E0,-1.624152064E0,-7.251620293E-2,2.184057236E-1,1.640374832E0
7.143584230E0,-1.535399437E0,-1.682845354E-1,1.629104614E-1,1.553161593E0
7.148598709E0,-1.313643098E0,-2.357109785E-1,1.007938385E-1,1.338423420E0
7.153613188E0,-1.383273125E0,-2.783467770E-1,3.648195267E-1,1.457399998E0
7.158627720E0,-2.680505514E-1,-5.764527321E-1,-1.065168381E-1,6.445887737E-1
7.163642199E0,-4.976272583E-3,-4.275609255E-1,7.223129272E-2,4.336478617E-1
7.168656678E0,1.920715570E-1,-6.539158821E-1,1.547355652E-1,6.988852259E-1
7.173671209E0,4.739820957E-2,-4.970233440E-1,2.202272415E-1,5.456911514E-1
7.178685688E0,4.475226402E-1,-6.138215065E-1,-6.394672394E-2,7.623270551E-1
7.183700168E0,-3.805804253E-1,-2.964029312E-1,2.118988037E-1,5.268749954E-1
7.188714699E0,-1.111227989E0,-1.204344034E-1,5.705776215E-1,1.254946577E0
7.193729178E0,-1.095489502E0,-2.579176426E-1,3.016500473E-1,1.165165872E0
7.198743657E0,-6.377356052E-1,-2.247784138E-1,9.400939941E-2,6.826930530E-1
7.203758188E0,-4.905769825E-1,-4.836314917E-1,1.350431442E-1,7.019984660E-1
7.208772668E0,3.765614033E-1,-4.314843416E-1,-1.637067795E-1,5.956317127E-1
7.213787147E0,5.548101664E-1,-6.568150520E-1,-4.766864777E-1,9.830820572E-1
7.218801678E0,-1.397536993E-1,-4.142282009E-1,-3.337421417E-1,5.499999237E-1
7.223816157E0,9.694015980E-2,-3.327586651E-1,-2.916107178E-1,4.529487107E-1
7.228830636E0,-1.689854860E-1,-4.943339825E-1,-5.991649628E-2,5.258442424E-1
7.233845168E0,-4.897456169E-1,-3.034031391E-1,3.289718628E-1,6.634204705E-1
7.238859647E0,-2.953917980E-1,-3.543498516E-1,1.402549744E-1,4.821738167E-1
7.243874126E0,-2.330943346E-1,-2.369153500E-1,1.407690048E-1,3.609401122E-1
7.248888657E0,-6.052510738E-1,-4.734413624E-1,4.644002914E-1,8.978547860E-1
7.253903136E0,-5.044264793E-1,-5.809669495E-1,6.265573502E-1,9.922412925E-1
7.258917615E0,3.923174143E-1,-5.608680248E-1,1.990890503E-1,7.128270090E-1
7.263932147E0,7.333517075E-1,-8.459310532E-1,5.315780640E-2,1.120816589E0
7.268946626E0,5.019283295E-2,-8.916642666E-1,1.128168106E-1,9.001733819E-1
7.273961105E0,2.089333534E-2,-9.058284760E-1,-4.311294556E-1,1.003411365E0
7.278975636E0,-3.288744688E-1,-7.213850021E-1,-5.482139587E-1,9.638948501E-1
7.283990115E0,-7.923165560E-1,-2.968392372E-1,-1.969652176E-1,8.687199517E-1
7.289004595E0,-1.062254429E0,-2.394111156E-1,-1.149320602E-1,1.094948187E0
7.294019126E0,-9.291269779E-1,1.475405693E-2,1.817989349E-2,9.294219342E-1
7.299033605E0,-3.442506790E-1,1.546493769E-1,-2.299528122E-1,4.419312793E-1
7.304048084E0,-6.380093098E-2,1.632175446E-1,-3.680801392E-2,1.790680193E-1
7.309062615E0,2.115856409E-1,-1.683459282E-1,2.783765793E-1,3.880751923E-1
7.314077095E0,8.135946989E-1,-4.156317711E-1,1.451663971E-1,9.250726383E-1
7.319091574E0,1.336174011E0,-7.168028355E-1,-2.357597351E-1,1.534519451E0
7.324106053E0,8.071310520E-1,-5.277113914E-1,-3.116521835E-1,1.013443107E0
7.329120584E0,2.304141521E-1,-6.023724079E-1,-1.303119659E-1,6.579699140E-1
7.334135063E0,-3.490948677E-1,-4.198172092E-1,-6.913375854E-2,5.503573316E-1
7.339149543E0,-5.844167471E-1,-6.242966652E-2,-3.232765198E-2,5.886301680E-1
7.344164074E0,-8.038904667E-1,9.521961212E-2,4.691600800E-2,8.108685274E-1
7.349178553E0,-5.852878094E-1,-1.684939861E-1,-2.115449905E-1,6.447505922E-1
7.354193032E0,-4.824740887E-1,-1.757071018E-1,-5.367612839E-1,7.428101425E-1
7.359207563E0,-6.347432137E-1,-8.072042465E-2,-2.680778503E-1,6.937438058E-1
7.364222043E0,2.517497540E-2,-1.295804977E-2,-1.437997818E-1,1.465607986E-1
7.369236522E0,4.589717388E-1,-2.954034805E-1,-3.552074432E-1,6.512223899E-1
7.374251053E0,2.472301722E-1,-3.314378262E-1,-2.226924896E-1,4.696442649E-1
7.379265532E0,9.052441716E-1,-5.047035217E-1,-7.820100784E-1,1.298357585E0
7.384280011E0,9.037137032E-2,-8.684539795E-2,-3.800611496E-1,4.001944342E-1
7.389294543E0,-4.327239990E-1,1.435830593E-1,1.749324799E-1,4.883313698E-1
7.394309022E0,-6.142925024E-1,2.088135481E-1,3.049449921E-1,7.169029394E-1
7.399323501E0,-2.278988361E-1,-1.354193687E-2,-4.556465149E-2,2.328033527E-1
7.404338032E0,-1.691460609E-3,-7.254719734E-2,-2.221784592E-1,2.337289554E-1
7.409352511E0,-3.251720667E-1,-1.948809624E-2,1.082429886E-1,3.432684131E-1
7.414366990E0,-5.091844797E-1,7.328081131E-2,2.960596085E-1,5.935403975E-1
7.419381522E0,8.725464344E-2,-4.045724869E-3,-5.649089813E-2,1.040238543E-1
7.424396001E0,-2.938628197E-3,-1.792645454E-1,1.188955307E-1,2.151291705E-1
7.429410480E0,4.624184370E-1,-2.400801182E-1,4.390144348E-2,5.228734175E-1
7.434425011E0,7.051823139E-1,-3.243789673E-1,-3.033981323E-1,8.333992063E-1
7.439439490E0,2.004003525E-1,-7.476568222E-2,-1.850385666E-1,2.828241143E-1
7.444453970E0,-2.909519672E-1,3.451044559E-1,2.169542313E-1,5.008186011E-1
7.449468501E0,-6.187992096E-1,4.678224325E-1,3.494558334E-1,8.508170601E-1
7.454482980E0,-5.480744839E-1,2.235342264E-1,1.866559982E-1,6.206397119E-1
7.459497459E0,-3.070944548E-1,-1.000008583E-1,-7.199096680E-2,3.308925431E-1
7.464511990E0,-2.980314493E-1,-5.375623703E-2,-1.669149399E-1,3.457933992E-1
7.469526470E0,-3.219907284E-1,-3.147010803E-1,-2.538661957E-1,5.168779783E-1
7.474540949E0,-5.147682428E-1,-3.127274513E-1,-2.449607849E-1,6.502234914E-1
7.479555428E0,3.478412628E-1,-2.204041481E-1,-3.928012848E-1,5.690908380E-1
7.484569959E0,5.431629419E-1,-9.063696861E-2,-1.192369461E-1,5.634345489E-1
7.489584438E0,8.586251736E-2,-9.431219101E-2,1.543569565E-1,2.002329425E-1
7.494598918E0,1.832166910E-1,-6.620788574E-2,-1.372232437E-1,2.382898626E-1
7.499613449E0,-2.326375246E-1,1.765551567E-1,2.000350952E-1,3.539858479E-1
7.504627928E0,-5.669310093E-1,3.257861137E-1,5.983753204E-1,8.863410096E-1
7.509642407E0,-2.809811831E-1,4.125459194E-1,6.917285919E-1,8.530140712E-1
7.514656938E0,-2.578946352E-1,3.175638914E-1,8.199205399E-1,9.163111697E-1
7.519671418E0,-5.794959068E-1,-4.583835602E-2,6.362752914E-1,8.618369378E-1
7.524685897E0,1.841163635E-2,-7.508945465E-2,1.277637482E-2,7.836230156E-2
7.529700428E0,-3.089966774E-1,-1.879701614E-1,2.064533234E-1,4.164549231E-1
7.534714907E0,-2.871873379E-1,-1.580882072E-2,4.010887146E-1,4.935571323E-1
7.539729386E0,4.346551895E-1,-1.187918186E-1,-1.488313675E-1,4.745391511E-1
7.544743918E0,3.149553537E-1,-3.022387028E-1,-2.691020966E-1,5.127972764E-1
7.549758397E0,-1.687994003E-1,-1.922583580E-1,-3.707885742E-2,2.585176115E-1
7.554772876E0,-7.356017828E-1,-1.731963158E-1,2.521820068E-1,7.966823151E-1
7.559787407E0,-1.045379877E0,-1.348402500E-1,4.177370071E-1,1.133801212E0
7.564801886E0,-7.847849131E-1,-1.461198330E-1,3.015794754E-1,8.533396424E-1
7.569816365E0,-2.510384321E-1,-1.590697765E-1,3.263387680E-1,4.413847298E-1
7.574830897E0,-5.399668217E-2,-5.723452568E-2,3.791942596E-1,3.872721513E-1
7.579845376E0,-3.396494389E-1,-6.681442261E-2,6.259050369E-1,7.152503224E-1
7.584859855E0,-4.143604040E-1,7.249045372E-2,6.637001038E-1,7.857781099E-1
7.589874334E0,6.485974789E-2,3.782033920E-1,4.634256363E-1,6.016709342E-1
7.594888865E0,-3.167132139E-1,2.999038696E-1,7.370471954E-1,8.564392326E-1
7.599903345E0,-1.488996744E-1,2.434687614E-1,5.335674286E-1,6.050969771E-1
7.604917824E0,-1.459828615E-1,-5.247831345E-3,1.727590561E-1,2.262393137E-1
7.609932355E0,-9.375299215E-1,3.739166260E-2,4.559087753E-1,1.043174627E0
7.614946834E0,-1.031283855E0,1.765182018E-1,4.613590240E-1,1.143484681E0
7.619961313E0,-5.518981218E-1,1.857520342E-1,3.713417053E-2,5.835017581E-1
7.624975845E0,-4.749684334E-1,1.630630493E-1,-1.246118546E-1,5.174095912E-1
7.629990324E0,-5.360908508E-1,1.384735107E-3,-2.799701691E-1,6.047963404E-1
7.635004803E0,-6.150696278E-1,-1.436967850E-1,-2.842483521E-1,6.926445976E-1
7.640019334E0,-7.924722433E-1,-2.941584587E-2,-1.412525177E-1,8.054997344E-1
7.645033813E0,-9.208319187E-1,1.526672840E-1,7.653141022E-2,9.365339176E-1
7.650048293E0,-2.126425505E-1,3.618524075E-1,1.191968918E-1,4.363048453E-1
7.655062772E0,-1.819559336E-1,3.409326077E-1,3.609895706E-1,5.288255618E-1
7.660077303E0,-2.224456072E-1,1.600933075E-2,2.351636887E-1,3.240992245E-1
7.665091782E0,1.979780197E-2,2.407145500E-2,3.437232971E-2,4.639876031E-2
7.670106261E0,-6.029713154E-2,1.851078272E-1,1.673488617E-1,2.567222103E-1
7.675120793E0,-6.881153584E-2,3.410617113E-1,1.209802628E-1,3.683671299E-1
7.680135272E0,1.004486084E-1,3.113253117E-1,-8.222579956E-3,3.272323080E-1
7.685149751E0,1.097674370E-1,1.058104038E-1,-1.316118240E-1,2.014110325E-1
7.690164282E0,-5.926606655E-1,-1.576673985E-1,8.076000214E-2,6.185691966E-1
7.695178761E0,-6.480532885E-1,-1.392095089E-1,-1.246166229E-2,6.629537277E-1
7.700193240E0,-3.708029985E-1,-1.894354820E-1,-1.975374222E-1,4.608705878E-1
7.705207772E0,5.381321907E-2,1.343576908E-1,-1.248788834E-1,1.911611549E-1
7.710222251E0,2.421209812E-1,3.941805363E-1,1.845006943E-1,4.980375196E-1
7.715236730E0,4.168590307E-1,2.957584858E-1,1.494369507E-1,5.325184839E-1
7.720251261E0,-7.084608078E-4,2.075383663E-1,7.902717590E-2,2.220764957E-1
7.725265740E0,-2.602341175E-1,2.721681595E-1,1.254577637E-1,3.969092509E-1
7.730280220E0,-5.627118349E-1,4.096846581E-1,2.308940887E-1,7.333472632E-1
7.735294751E0,-7.481459379E-1,3.984696865E-1,2.998371124E-1,8.991121896E-1
7.740309230E0,-6.425856352E-1,2.965441942E-1,6.210803986E-2,7.104309722E-1
7.745323709E0,-3.476793766E-1,1.702381372E-1,-2.991781235E-1,4.892540463E-1
7.750338188E0,-3.869506121E-1,-1.964905262E-1,-2.701902390E-1,5.112162637E-1
7.755352720E0,-3.717073202E-1,-3.406116962E-1,-2.387161255E-1,5.578243882E-1
7.760367199E0,7.579696178E-2,-2.465012074E-1,-2.668209076E-1,3.710814215E-1
7.765381678E0,-5.495178699E-2,-7.949495316E-2,1.516275406E-1,1.798056104E-1
7.770396209E0,-3.483055830E-1,-1.244561672E-1,1.366806030E-1,3.943192919E-1
7.775410688E0,-4.612177610E-1,-1.009695530E-1,-6.130504608E-2,4.761039618E-1
7.780425168E0,-8.335876465E-1,2.806577682E-1,2.307968140E-1,9.093427938E-1
7.785439699E0,-1.098502755E0,4.212390184E-1,5.556573868E-1,1.301117114E0
7.790454178E0,-7.488754988E-1,4.604382515E-1,5.497798920E-1,1.036858633E0
7.795468657E0,-5.965923071E-1,6.738784313E-1,6.741952896E-1,1.124532707E0
7.800483188E0,-5.762114525E-1,5.979759693E-1,5.816030502E-1,1.013832829E0
7.805497668E0,6.792676449E-2,1.468129158E-1,-5.364036560E-2,1.704270119E-1
7.810512147E0,1.272298098E-1,2.632815838E-1,-1.491050720E-1,3.282330565E-1
7.815526626E0,4.136245251E-1,2.002017498E-1,-3.124504089E-1,5.556898833E-1
7.820541157E0,5.478136539E-1,5.050280094E-1,-4.552564621E-1,8.731618040E-1
7.825555636E0,1.162998676E-1,4.116601944E-1,-4.921360016E-1,6.520641218E-1
7.830570115E0,-7.814743519E-1,2.698158026E-1,-1.532249451E-1,8.408213923E-1
7.835584647E0,-9.163553715E-1,1.136667728E-1,-2.822647095E-1,9.655571802E-1
7.840599126E0,-1.113602400E0,1.292643547E-1,-2.345371246E-1,1.145350270E0
7.845613605E0,-8.180916309E-1,2.895302773E-1,-1.562805176E-1,8.817739496E-1
7.850628136E0,3.814578056E-3,4.368219376E-1,-4.300050735E-1,6.129700804E-1
7.855642615E0,3.298894167E-1,2.576355934E-1,-4.403123856E-1,6.075180023E-1
7.860657095E0,1.832950115E-1,2.417688370E-1,5.192756653E-3,3.034405980E-1
7.865671626E0,3.024637699E-2,2.436344624E-1,1.619644165E-1,2.941174371E-1
7.870686105E0,1.297146082E-1,4.393401146E-1,-1.760101318E-2,4.584271060E-1
7.875700584E0,6.458437443E-2,4.421072006E-1,-2.733802795E-2,4.476352154E-1
7.880715115E0,-5.768057108E-1,3.794211149E-1,1.503076553E-1,7.065816313E-1
7.885729595E0,-6.668599844E-1,4.321212769E-1,7.462024689E-2,7.981223076E-1
7.890744074E0,-1.004842162E0,4.824471474E-1,2.771310806E-1,1.148592468E0
7.895758553E0,-1.244883776E0,5.062208176E-1,4.304475784E-1,1.411127297E0
7.900773084E0,-6.165784597E-1,3.956773281E-1,3.198432922E-2,7.333161271E-1
7.905787563E0,-1.383115053E-1,1.229565144E-1,-2.155923843E-1,2.841275297E-1
7.910802043E0,-4.233720303E-1,2.644975185E-1,1.302375793E-1,5.159114657E-1
7.915816522E0,-4.755474329E-1,3.346626759E-1,3.167533875E-1,6.621760914E-1
7.920831053E0,-6.124353409E-1,1.324102879E-1,2.471637726E-2,6.270729068E-1
7.925845532E0,-5.845944881E-1,1.517086029E-1,-1.435575485E-1,6.207857807E-1
7.930860063E0,-2.599563599E-1,1.111217737E-1,-7.773017883E-2,2.932018730E-1
7.935874543E0,-6.594555378E-1,2.726789713E-1,2.367744446E-1,7.518627304E-1
7.940889022E0,-5.711998940E-1,2.287456989E-1,2.020034790E-1,6.476104687E-1
7.945903501E0,-4.146528244E-1,1.048480272E-1,-8.288383484E-3,4.277835561E-1
7.950918032E0,-4.992589951E-1,8.000564575E-2,4.418563843E-2,5.075557291E-1
7.955932511E0,-4.478961229E-1,1.582109928E-1,1.388006210E-1,4.948810641E-1
7.960946990E0,-3.778314590E-1,8.259630203E-2,1.516246796E-1,4.154140152E-1
7.965961522E0,-2.799580097E-1,1.800286770E-1,1.920890808E-2,3.334003508E-1
7.970976001E0,-3.394347429E-1,3.966448307E-1,2.793149948E-1,5.920810187E-1
7.975990480E0,-1.940913200E-1,3.557051420E-1,2.688007355E-1,4.862627109E-1
7.981005011E0,1.693248749E-3,1.491217613E-1,-1.095552444E-1,1.850473409E-1
7.986019490E0,4.710127115E-1,2.388384342E-1,-4.016609192E-1,6.634969978E-1
7.991033970E0,-6.510138512E-2,3.323147297E-1,-2.473821640E-1,4.193676251E-1
7.996048449E0,-5.657957792E-1,3.773784637E-1,-1.442298889E-1,6.952277537E-1
8.001062980E0,-5.846813917E-1,4.379661083E-1,-1.225852966E-1,7.407386832E-1
8.006077459E0,-1.001558423E0,4.819152355E-1,2.054252625E-1,1.130292488E0
8.011091938E0,-1.013174415E0,9.364092350E-2,3.078899384E-1,1.063055611E0
8.016106470E0,-4.974396229E-1,-1.154015064E-1,-1.313924789E-1,5.272832916E-1
8.021120949E0,-1.664054394E-2,-1.815333366E-1,-3.863487244E-1,4.271962041E-1
8.026135428E0,3.576768637E-1,5.427289009E-2,-2.259798050E-1,4.265502991E-1
8.031149959E0,4.701672792E-1,1.770300865E-1,-1.009368896E-2,5.024925915E-1
8.036164438E0,5.360367298E-1,1.521463394E-1,-7.323265076E-3,5.572589295E-1
8.041178918E0,8.833914995E-1,-9.977245331E-2,-6.052875519E-1,1.075503651E0
8.046193397E0,3.761358261E-1,-1.429817677E-1,-5.241413116E-1,6.607919946E-1
8.051207928E0,-5.912865400E-1,-2.449195385E-1,2.398424149E-1,6.834688996E-1
8.056222407E0,-7.746372223E-1,-3.719220161E-1,1.712732315E-1,8.761982265E-1
8.061236886E0,-2.840542793E-1,-3.404138088E-1,-2.721118927E-1,5.202050336E-1
8.066251418E0,-3.314758539E-1,-2.368886471E-1,7.850360870E-2,4.149160029E-1
8.071265897E0,1.470732689E-2,9.057044983E-3,4.072008133E-1,4.075669735E-1
8.076280376E0,6.551209688E-1,-5.968022346E-2,3.127002716E-1,7.283726194E-1
8.081294907E0,4.374452829E-1,-1.334023476E-2,6.629209518E-1,7.943554153E-1
8.086309386E0,8.217781782E-1,3.838062286E-3,7.349758148E-1,1.102507847E0
8.091323865E0,7.613509893E-1,-2.617623806E-1,4.930610657E-1,9.440784328E-1
8.096338397E0,2.758210897E-1,-2.041411400E-1,2.982892990E-1,4.546728324E-1
8.101352876E0,4.019619226E-1,1.696939468E-1,1.120891571E-1,4.504813004E-1
8.106367355E0,2.883124352E-2,1.705489159E-1,6.258869171E-2,1.839443330E-1
8.111381834E0,-5.879267454E-1,1.910279989E-1,1.866378784E-1,6.457424038E-1
8.116396365E0,-4.381414652E-1,1.957585812E-1,-4.928998947E-1,6.879241759E-1
8.121410845E0,4.004061222E-2,3.740466833E-1,-1.204752922E0,1.262118764E0
8.126425324E0,1.584808826E-1,3.692808151E-1,-9.489688873E-1,1.030546680E0
8.131439855E0,-1.635420322E-1,-4.048728943E-2,-6.284732819E-1,6.506641860E-1
8.136454334E0,5.468306541E-1,-9.739470482E-2,-1.053202629E0,1.190691090E0
8.141468813E0,1.450106621E0,-1.404588223E-1,-1.352998734E0,1.988251359E0
8.146483293E0,1.514423966E0,2.934540510E-1,-6.861686707E-1,1.688319482E0
8.151497824E0,1.299990177E0,4.236530066E-1,-1.100702286E-1,1.371703972E0
8.156512303E0,8.950787783E-1,1.506927013E-1,-7.278537750E-2,9.105888319E-1
