"Time (s)","Linear Acceleration x (m/s^2)","Linear Acceleration y (m/s^2)","Linear Acceleration z (m/s^2)","Absolute acceleration (m/s^2)"
1.089001150E-1,7.739782333E-3,8.799750805E-1,-1.849136353E-1,8.992269452E-1
1.140154280E-1,-6.658986211E-2,7.816390991E-1,-2.159299850E-1,8.136458993E-1
1.191307400E-1,-5.084487796E-2,7.166087627E-1,-1.750812531E-1,7.394367895E-1
1.242460530E-1,6.904122233E-2,7.767839432E-1,-9.959125519E-2,7.861796251E-1
1.293613650E-1,-8.844792843E-2,7.276041508E-1,-1.372394562E-1,7.456979983E-1
1.344766780E-1,-9.057128429E-2,6.396036148E-1,-6.789779663E-2,6.495429565E-1
1.395919900E-1,8.179508150E-2,5.991020203E-1,-9.547042847E-2,6.121505279E-1
1.447073030E-1,1.946794987E-2,5.786364079E-1,-1.219720840E-1,5.916724456E-1
1.498226150E-1,-1.253289282E-1,5.704135895E-1,-1.221199036E-1,5.966508813E-1
1.549379280E-1,-2.552288771E-2,5.533707142E-1,-6.444072723E-2,5.576945153E-1
1.600532400E-1,1.637611985E-1,7.023568153E-1,-1.328067780E-1,7.333215301E-1
1.651685530E-1,-1.252673864E-1,6.542744637E-1,-4.223690033E-1,7.887728233E-1
1.702838650E-1,-1.202941537E-1,5.611288548E-1,-5.653362274E-1,8.055689450E-1
1.753991780E-1,7.484208047E-2,6.167747974E-1,-6.291599274E-1,8.842254814E-1
1.805144900E-1,9.689199924E-2,6.938772202E-1,-5.675601959E-1,9.016530553E-1
1.856298030E-1,-1.091563702E-1,6.681733131E-1,-4.911956787E-1,8.364471796E-1
1.907451150E-1,-3.277701139E-2,6.141817570E-1,-3.400506973E-1,7.028001422E-1
1.958604280E-1,1.205716729E-1,5.816295147E-1,-2.927799225E-1,6.622314578E-1
2.009757400E-1,-4.709511995E-3,5.398845673E-1,-3.277549744E-1,6.316018118E-1
2.060910530E-1,-5.451524258E-2,5.355572701E-1,-3.800182343E-1,6.589441247E-1
2.112063650E-1,-2.773314714E-3,5.584657192E-1,-3.955097198E-1,6.843387972E-1
2.163216780E-1,3.118169308E-2,5.543687344E-1,-3.868160248E-1,6.767005458E-1
2.214369900E-1,-2.430301905E-2,5.050718784E-1,-3.662443161E-1,6.243581810E-1
2.265523030E-1,-3.469049931E-3,4.770810604E-1,-3.363819122E-1,5.837560821E-1
2.316676150E-1,2.141439915E-2,5.025043488E-1,-3.278598785E-1,6.003842911E-1
2.367829280E-1,-2.906239033E-2,5.006442070E-1,-3.261346817E-1,5.982082206E-1
2.418982400E-1,-2.911242843E-2,4.956898689E-1,-3.497323990E-1,6.073456434E-1
2.470135530E-1,2.689871192E-2,4.876637459E-1,-3.466348648E-1,5.989116790E-1
2.521288650E-1,-4.901975393E-3,4.716925621E-1,-3.221693039E-1,5.712363459E-1
2.572441780E-1,-1.946529746E-2,4.595859051E-1,-2.861566544E-1,5.417413892E-1
2.623594900E-1,1.996088028E-2,4.440634251E-1,-2.482423782E-1,5.091316535E-1
2.674748030E-1,2.348101139E-2,4.367835522E-1,-2.225456238E-1,4.907726398E-1
2.725901150E-1,-5.830079317E-3,4.376890659E-1,-2.158184052E-1,4.880402568E-1
2.776147510E-1,1.032716036E-2,4.238290787E-1,-2.134265900E-1,4.746458127E-1
2.826305320E-1,1.894405484E-2,4.420295954E-1,-2.365674973E-1,5.017102960E-1
2.876463650E-1,3.997802734E-3,4.424400330E-1,-2.612657547E-1,5.138374838E-1
2.926621460E-1,2.470576763E-2,4.230921268E-1,-2.851591110E-1,5.108160543E-1
2.976779280E-1,1.454961300E-2,4.715529680E-1,-3.152885437E-1,5.674334839E-1
3.026937090E-1,-2.615213394E-3,4.927548170E-1,-3.209600449E-1,5.880726991E-1
3.077095420E-1,-4.922538996E-3,4.752638340E-1,-3.426284790E-1,5.859131488E-1
3.127253240E-1,2.780348063E-2,4.742321968E-1,-3.564481735E-1,5.939061461E-1
3.177411050E-1,2.949208021E-2,4.634763002E-1,-3.884592056E-1,6.054590144E-1
3.227568860E-1,-8.884191513E-3,4.737679958E-1,-3.653945923E-1,5.983713319E-1
3.277727190E-1,1.247364283E-2,4.954881668E-1,-3.658332825E-1,6.160341758E-1
3.327885010E-1,4.048427939E-2,5.121420622E-1,-3.893880844E-1,6.446328793E-1
3.378042820E-1,-1.431766152E-2,5.049297810E-1,-4.215793610E-1,6.579424266E-1
3.428200630E-1,-3.036245704E-2,5.119857788E-1,-4.174985886E-1,6.613292584E-1
3.478358960E-1,2.205550671E-2,4.977260828E-1,-4.130783081E-1,6.471872894E-1
3.528516780E-1,7.846683264E-3,5.190259218E-1,-3.988933563E-1,6.546490569E-1
3.578674590E-1,-1.782500744E-2,5.353521109E-1,-3.939390182E-1,6.649116961E-1
3.628832400E-1,1.613676548E-3,5.254009962E-1,-3.957614899E-1,6.577810940E-1
3.678990740E-1,2.544927597E-2,5.109760761E-1,-3.806266785E-1,6.376683185E-1
3.729148550E-1,-2.876475453E-2,5.107510090E-1,-3.913011551E-1,6.440579153E-1
3.779306360E-1,-4.434019327E-3,4.629476070E-1,-3.401298523E-1,5.744810387E-1
3.829464170E-1,6.471979618E-2,4.626992941E-1,-3.318109512E-1,5.730425779E-1
3.879622510E-1,-6.398111582E-3,4.477540255E-1,-3.020429611E-1,5.401430861E-1
3.929780320E-1,-5.675345659E-3,4.322123528E-1,-2.393407822E-1,4.940887951E-1
3.979938130E-1,5.168774724E-2,3.995051384E-1,-2.055454254E-1,4.522442932E-1
4.030095940E-1,4.198476672E-2,3.898115158E-1,-1.908617020E-1,4.360549596E-1
4.080254280E-1,-1.942038536E-2,3.649563789E-1,-1.548557281E-1,3.969264497E-1
4.130412090E-1,2.884858847E-2,3.461695910E-1,-1.356525421E-1,3.729172012E-1
4.180569900E-1,5.055150390E-2,3.618819714E-1,-1.211814880E-1,3.849661917E-1
4.230727710E-1,-1.357555389E-3,3.285925388E-1,-9.489536285E-2,3.420234340E-1
4.280886050E-1,1.836666465E-2,3.153527975E-1,-4.749011993E-2,3.194370560E-1
4.331043860E-1,4.729199409E-2,3.218939304E-1,-2.651214600E-2,3.264278313E-1
4.381201670E-1,2.362722158E-2,2.934234142E-1,-1.038837433E-2,2.945563850E-1
4.431359490E-1,-3.024950624E-2,2.894933224E-1,2.225971222E-2,2.919193572E-1
4.481517820E-1,2.789741755E-2,2.576189041E-1,3.808498383E-2,2.619088232E-1
4.531675630E-1,4.029151797E-2,2.571858168E-1,3.962802887E-2,2.633217261E-1
4.581833440E-1,-1.355159283E-2,2.261277437E-1,6.489276886E-2,2.356448039E-1
4.631991260E-1,1.592049003E-2,2.310094833E-1,9.465885162E-2,2.501582331E-1
4.682149590E-1,2.367419004E-2,2.027995586E-1,9.574890137E-2,2.255127056E-1
4.732307400E-1,-2.551823854E-2,2.196745872E-1,1.157608032E-1,2.496170434E-1
4.782465210E-1,-1.246801019E-2,1.958971024E-1,1.284484863E-1,2.345850371E-1
4.832623030E-1,3.589716554E-2,1.887197495E-1,1.409873962E-1,2.382880530E-1
4.882781360E-1,7.870644331E-3,1.765277386E-1,1.675624847E-1,2.435183275E-1
4.932939170E-1,-2.447685599E-2,1.615679264E-1,1.890449524E-1,2.498825831E-1
4.983096990E-1,3.338289261E-2,1.390495300E-1,2.149362564E-1,2.581603836E-1
5.033255320E-1,2.647572756E-2,1.469185352E-1,2.143793106E-1,2.612365001E-1
5.083413130E-1,-2.982977033E-2,1.206855774E-1,2.563304901E-1,2.848861947E-1
5.133570940E-1,1.154071093E-2,1.054999828E-1,2.763109207E-1,2.959918230E-1
5.183728760E-1,4.993668199E-2,7.754635811E-2,2.911224365E-1,3.053839926E-1
5.233887090E-1,-1.960635185E-3,7.469701767E-2,3.292303085E-1,3.376034428E-1
5.284044900E-1,-2.498003840E-2,4.906964302E-2,3.571538925E-1,3.613734012E-1
5.334202710E-1,4.927736521E-2,2.441740036E-2,4.010248184E-1,4.047781777E-1
5.384360530E-1,3.025400639E-2,1.249241829E-2,4.251079559E-1,4.263662036E-1
5.434518860E-1,-3.370410204E-2,1.033544540E-3,4.390058517E-1,4.402989582E-1
5.484676670E-1,1.681348681E-2,-2.165269852E-2,4.618310928E-1,4.626440219E-1
5.534834490E-1,4.051440954E-2,-2.954649925E-2,4.578733444E-1,4.606109123E-1
5.584992300E-1,-1.891750097E-2,-2.519845963E-2,4.700746536E-1,4.711295089E-1
5.635150630E-1,-1.148650050E-2,-4.880762100E-2,4.722518921E-1,4.749062783E-1
5.685308440E-1,5.048277974E-2,-2.904963493E-2,4.360065460E-1,4.398796432E-1
5.735466260E-1,9.864777327E-3,-3.717207909E-2,3.997211456E-1,4.015670200E-1
5.785624590E-1,-2.322122455E-2,-2.301979065E-2,3.776512146E-1,3.790640789E-1
5.835782400E-1,4.114431143E-2,-8.055925369E-3,3.435869217E-1,3.461354143E-1
5.885940210E-1,2.179700136E-2,7.936954498E-4,3.000535965E-1,3.008453091E-1
5.936098030E-1,-1.887610555E-2,1.070022583E-2,2.969675064E-1,2.977591343E-1
5.986256360E-1,7.285833359E-3,2.414703369E-2,2.723102570E-1,2.734758466E-1
6.036414170E-1,2.838435769E-2,2.694702148E-2,2.405233383E-1,2.436868688E-1
6.086571990E-1,-1.946341991E-2,1.197433472E-2,2.325115204E-1,2.336317969E-1
6.136729800E-1,-1.225063205E-2,2.906537056E-2,2.575330734E-1,2.594574294E-1
6.186888130E-1,4.929837584E-2,1.376152039E-2,2.488174438E-1,2.540272223E-1
6.237045940E-1,-3.697216511E-3,1.707792282E-3,2.920532227E-1,2.920816167E-1
6.287203760E-1,-3.718686104E-2,-3.593373299E-2,3.321418762E-1,3.361433054E-1
6.337362090E-1,4.579535127E-2,-7.528948784E-2,3.714714050E-1,3.817809921E-1
6.387519900E-1,4.244378209E-2,-8.314919472E-2,3.910589218E-1,4.020476882E-1
6.437677710E-1,-3.448095918E-2,-1.004054546E-1,4.337673187E-1,4.465694556E-1
6.487835530E-1,-1.399993896E-3,-1.175994873E-1,4.542942047E-1,4.692705231E-1
6.537993860E-1,6.208634377E-2,-1.203758717E-1,4.576082230E-1,4.772319670E-1
6.588151670E-1,-8.050560951E-3,-1.447155476E-1,4.533243179E-1,4.759310228E-1
6.638309490E-1,-4.193881154E-2,-1.764285564E-1,4.747304916E-1,5.081878975E-1
6.688467300E-1,3.128007054E-2,-2.014203072E-1,5.097274780E-1,5.489723898E-1
6.738625630E-1,1.094773412E-2,-2.081177235E-1,5.653038025E-1,6.024958330E-1
6.788783440E-1,-3.765773773E-2,-2.515908480E-1,6.056737900E-1,6.569298287E-1
6.838941260E-1,-4.758834839E-4,-2.914474010E-1,6.523275375E-1,7.144739535E-1
6.889099590E-1,2.909860015E-2,-3.301972151E-1,6.672649384E-1,7.450633714E-1
6.939257400E-1,-5.861580372E-3,-3.752778769E-1,6.982469559E-1,7.927273518E-1
6.989415210E-1,-1.689216495E-2,-4.176868200E-1,7.261314392E-1,8.378630508E-1
7.039573030E-1,2.919346094E-2,-4.744106531E-1,7.913455963E-1,9.231173158E-1
7.089731360E-1,-1.333919168E-2,-5.482617617E-1,9.054574966E-1,1.058594432E0
7.139889170E-1,-2.464747429E-2,-5.918258429E-1,9.850711823E-1,1.149447937E0
7.190046990E-1,1.616817713E-2,-6.435456276E-1,1.028210640E0,1.213107376E0
7.240205320E-1,8.989721537E-3,-6.654936075E-1,1.006832123E0,1.206927289E0
7.290363130E-1,-2.183774114E-2,-7.247128487E-1,1.014205933E0,1.246715394E0
7.340520940E-1,1.978456974E-3,-7.950699329E-1,1.009881973E0,1.285302187E0
7.390678760E-1,1.595214009E-2,-8.314794302E-1,1.036894798E0,1.329196500E0
7.440837090E-1,-2.040633559E-2,-8.653528094E-1,1.080939293E0,1.384803834E0
7.490994900E-1,5.015939474E-3,-9.469671249E-1,1.101740837E0,1.452792059E0
7.541152710E-1,-2.901870310E-1,-1.090133190E0,1.152013779E0,1.612369260E0
7.591311050E-1,1.740623713E-1,-1.009719849E0,1.153424263E0,1.542795972E0
7.641468860E-1,6.705534458E-2,-1.094580293E0,1.063994408E0,1.527968107E0
7.691626670E-1,-7.031056285E-2,-1.200520277E0,1.027260780E0,1.581599577E0
7.741785010E-1,-3.116187453E-2,-1.218410730E0,9.790172577E-1,1.563320364E0
7.791942820E-1,-7.322439551E-2,-1.286797762E0,1.062186241E0,1.670164634E0
7.842100630E-1,2.991271019E-2,-1.285973668E0,1.045762062E0,1.657782053E0
7.892258440E-1,5.609366298E-2,-1.301025152E0,8.668079376E-1,1.564342976E0
7.942416780E-1,-1.252240092E-1,-1.315498829E0,6.528701782E-1,1.473925945E0
7.992574590E-1,-6.480395794E-2,-1.431345344E0,6.824245453E-1,1.587026246E0
8.042732400E-1,1.994739324E-1,-1.395148039E0,7.851552963E-1,1.613287556E0
8.092890740E-1,5.486044288E-2,-1.378639460E0,5.903739929E-1,1.500732448E0
8.143048550E-1,-7.389254868E-2,-1.445430279E0,3.620548248E-1,1.491915713E0
8.193206360E-1,4.792217910E-2,-1.456841111E0,2.340965271E-1,1.476307469E0
8.243364170E-1,4.724919796E-3,-1.459652305E0,4.836273193E-2,1.460460930E0
8.293522510E-1,-7.516619563E-2,-1.469604731E0,3.848743439E-2,1.472028975E0
8.343680320E-1,4.910072684E-2,-1.471866846E0,-2.153100967E-1,1.488341806E0
8.393838130E-1,8.749501407E-2,-1.430820227E0,-3.162870407E-1,1.467971182E0
8.443996460E-1,2.963185310E-2,-1.430231094E0,-1.284599304E-2,1.430595697E0
8.494154280E-1,-2.534809709E-1,-1.471735597E0,2.287101746E-1,1.510816538E0
8.544312090E-1,-4.227587581E-2,-1.428025126E0,1.373901367E-1,1.435241813E0
8.594470420E-1,1.272482574E-1,-1.481613636E0,-2.850704193E-1,1.514145379E0
8.644628240E-1,8.000582457E-3,-1.438066006E0,-6.752815247E-1,1.588742579E0
8.694786050E-1,-7.054099441E-2,-1.337877989E0,-7.932348251E-1,1.556956978E0
8.744943860E-1,-7.228770852E-2,-1.291017294E0,-7.712993622E-1,1.505607476E0
8.795102190E-1,-4.706412554E-3,-1.306529760E0,-6.007795334E-1,1.438046666E0
8.845260010E-1,2.676780522E-2,-1.305304766E0,-5.444173813E-1,1.414541386E0
8.895418340E-1,8.227901161E-2,-1.286787510E0,-6.375637054E-1,1.438429494E0
8.945576150E-1,2.348980308E-2,-1.245795727E0,-7.463593483E-1,1.452450013E0
8.995733960E-1,-2.558922768E-2,-1.229642868E0,-8.472061157E-1,1.493463958E0
9.045891780E-1,4.480724037E-2,-1.197670460E0,-9.854612350E-1,1.551630131E0
9.096050110E-1,4.361106455E-2,-1.197138786E0,-9.017782211E-1,1.499415606E0
9.146207920E-1,-7.461130619E-3,-1.116439342E0,-9.042696953E-1,1.436731066E0
9.196365740E-1,1.343593001E-3,-1.112435818E0,-7.787556648E-1,1.357930646E0
9.246524070E-1,1.057980359E-1,-1.072477818E0,-8.977317810E-1,1.402613362E0
9.296681880E-1,7.654954493E-2,-1.003424644E0,-1.015160561E0,1.429430591E0
9.346839690E-1,1.903132349E-2,-9.980416298E-1,-1.095744133E0,1.482263300E0
9.396998030E-1,1.198595762E-2,-8.723764420E-1,-1.242544651E0,1.518256082E0
9.447155840E-1,2.521030605E-3,-8.175387383E-1,-1.203077793E0,1.454569393E0
9.497313650E-1,3.384240717E-2,-7.879695892E-1,-1.173809052E0,1.414167271E0
9.547471990E-1,1.106179506E-1,-7.693629265E-1,-1.183410645E0,1.415844765E0
9.597629800E-1,7.974363863E-2,-6.995387077E-1,-1.179804802E0,1.373918783E0
9.647787610E-1,-4.840639979E-2,-6.239423752E-1,-1.203943253E0,1.356881212E0
9.697945420E-1,5.293395370E-2,-6.546587944E-1,-1.255862236E0,1.417240310E0
9.748103760E-1,1.396086216E-1,-5.911812782E-1,-1.235615730E0,1.376855876E0
9.798261570E-1,3.280413151E-2,-5.105652809E-1,-1.145832539E0,1.254864624E0
9.848419380E-1,-5.175527930E-2,-5.271768570E-1,-1.120616436E0,1.239506048E0
9.898577710E-1,1.311979890E-1,-5.192890167E-1,-1.135810375E0,1.255762399E0
9.948735530E-1,1.371077448E-1,-4.442944527E-1,-1.129385471E0,1.221354837E0
9.998893340E-1,3.479421139E-6,-4.383378029E-1,-1.087420464E0,1.172443301E0
1.004905167E0,4.704739526E-2,-4.583349228E-1,-1.088808537E0,1.182281011E0
1.009920949E0,1.417159140E-1,-4.257373810E-1,-1.052347660E0,1.144015435E0
1.014936730E0,9.792746603E-2,-3.933153152E-1,-9.640741348E-1,1.045813398E0
1.019952563E0,4.980614781E-2,-3.276176453E-1,-9.939353466E-1,1.047722028E0
1.024968344E0,9.232451022E-2,-2.741041183E-1,-1.084509134E0,1.122415674E0
1.029984126E0,6.802260876E-2,-2.614336014E-1,-1.168927670E0,1.199736013E0
1.034999959E0,7.711590081E-2,-2.204647064E-1,-1.147279978E0,1.170812921E0
1.040015740E0,1.077149436E-1,-2.229681015E-1,-1.082099438E0,1.110070483E0
1.045031521E0,1.336610317E-1,-1.473970413E-1,-1.057042122E0,1.075606437E0
1.050047355E0,8.319529891E-2,-1.683330536E-1,-1.031124592E0,1.048081771E0
1.055063136E0,8.066531271E-2,-1.781616211E-1,-9.903032780E-1,1.009430056E0
1.060078917E0,1.641388386E-1,-1.269750595E-1,-9.754198790E-1,9.972503018E-1
1.065094751E0,1.280986369E-1,-1.153326035E-1,-9.719401598E-1,9.871061465E-1
1.070110532E0,8.518203348E-2,-1.074810028E-1,-9.844688177E-1,9.939753507E-1
1.075126313E0,6.147073954E-2,-1.058769226E-1,-9.916446209E-1,9.991734728E-1
1.080142146E0,1.069815531E-1,-7.731151581E-2,-9.242109060E-1,9.335887328E-1
1.085157928E0,7.856044173E-2,-8.393573761E-2,-8.708865643E-1,8.784420065E-1
1.090173709E0,1.384519041E-1,-6.137275696E-2,-8.411767483E-1,8.547010395E-1
1.095189542E0,1.554296315E-1,-5.097389221E-3,-8.469417095E-1,8.611008147E-1
1.100205324E0,1.341759264E-1,1.287460327E-3,-9.122550488E-1,9.220705563E-1
1.105221105E0,1.128889024E-1,8.144378662E-4,-9.894153476E-1,9.958349751E-1
1.110236938E0,9.172698855E-2,1.003074646E-2,-9.923377037E-1,9.966185702E-1
1.115252719E0,9.449239075E-2,5.495262146E-2,-9.401822686E-1,9.465153463E-1
1.120268501E0,1.307046860E-1,1.374053955E-2,-8.925529122E-1,9.021769330E-1
1.125284334E0,1.477896273E-1,-1.323699951E-3,-8.086849451E-1,8.220795987E-1
1.130300115E0,1.218758970E-1,1.430511475E-2,-7.409998178E-1,7.510919389E-1
1.135315896E0,9.846612066E-2,-1.585769653E-2,-6.774195433E-1,6.847220466E-1
1.140331730E0,1.324008703E-1,-2.732181549E-2,-6.775673032E-1,6.909225155E-1
1.145347511E0,1.471850127E-1,-1.071453094E-2,-6.645938754E-1,6.807813514E-1
1.150363292E0,7.125009596E-2,-1.388835907E-2,-6.193635464E-1,6.236029709E-1
1.155379126E0,5.753315985E-2,-8.925151825E-2,-5.678750277E-1,5.777178767E-1
1.160394907E0,1.442649961E-1,-8.873653412E-2,-4.955511093E-1,5.236959648E-1
1.165410688E0,1.567045450E-1,-1.104288101E-1,-4.069688022E-1,4.498604700E-1
1.170426521E0,9.034278989E-2,-1.256427765E-1,-3.669046462E-1,3.982046538E-1
1.175442303E0,1.125613749E-1,-1.058158875E-1,-3.845312297E-1,4.144047922E-1
1.180458136E0,1.561042666E-1,-9.163665771E-2,-4.120548069E-1,4.500610881E-1
1.185473917E0,1.066143662E-1,-9.264183044E-2,-4.162926078E-1,4.396005768E-1
1.190489699E0,1.051085964E-1,-1.206941605E-1,-4.567520618E-1,4.839807263E-1
1.195505532E0,1.393697858E-1,-1.041746140E-1,-4.617220163E-1,4.934202142E-1
1.200521313E0,1.091562957E-1,-9.338283539E-2,-4.293953776E-1,4.527867502E-1
1.205537094E0,1.266468763E-1,2.595615387E-2,-5.425490141E-1,5.577388151E-1
1.210552928E0,1.320611835E-1,3.393936157E-2,-7.723321915E-1,7.842761315E-1
1.215568709E0,1.279636770E-1,6.692600250E-2,-8.482203484E-1,8.604252157E-1
1.220584490E0,7.855813205E-2,5.572414398E-2,-6.961580515E-1,7.027891526E-1
1.225600324E0,1.248924658E-1,-5.674934387E-2,-5.316703320E-1,5.490828334E-1
1.230616105E0,2.784346640E-1,-7.610321045E-4,-6.173539162E-1,6.772387312E-1
1.235631886E0,6.609468907E-2,3.761291504E-3,-5.912573338E-1,5.949520064E-1
1.240647719E0,1.461808383E-2,-1.333866119E-1,-4.027224779E-1,4.244891881E-1
1.245663501E0,2.140147686E-1,-1.993665695E-1,-2.191101313E-1,3.654567004E-1
1.250679334E0,2.169576883E-1,-1.895713806E-1,-9.470200539E-2,3.032761393E-1
1.255695115E0,8.139376342E-2,-2.211198807E-1,-1.506543159E-2,2.361057254E-1
1.260710896E0,1.112280264E-1,-2.437133789E-1,-1.813960075E-2,2.685087150E-1
1.265726730E0,1.648206711E-1,-2.787647247E-1,-6.291055679E-2,3.298990202E-1
1.270742511E0,1.228706911E-1,-3.307476044E-1,-6.954669952E-4,3.528337685E-1
1.275758292E0,7.633129507E-2,-3.851003647E-1,1.159851551E-1,4.093669670E-1
1.280774126E0,9.209810197E-2,-4.202175140E-1,2.059347630E-1,4.769422880E-1
1.285789907E0,1.339294165E-1,-4.241867065E-1,2.667334080E-1,5.186696073E-1
1.290805688E0,1.042673886E-1,-4.448318481E-1,2.217924595E-1,5.078769108E-1
1.295821521E0,1.367717385E-1,-4.391336441E-1,1.428470612E-1,4.816120313E-1
1.300837303E0,1.429168582E-1,-4.263544083E-1,6.526803970E-2,4.543822475E-1
1.305853084E0,9.413272887E-2,-3.708400726E-1,5.059242249E-4,3.826010796E-1
1.310868917E0,1.266597211E-1,-3.395872116E-1,-1.018898487E-1,3.764886459E-1
1.315884699E0,1.375060678E-1,-2.636480331E-1,-2.045061588E-1,3.608891423E-1
1.320900532E0,1.007368863E-1,-2.293930054E-1,-3.630495071E-1,4.411054475E-1
1.325916313E0,1.693301797E-1,-2.248258591E-1,-5.369162560E-1,6.062164981E-1
1.330932094E0,1.944026500E-1,-1.545267105E-1,-6.236047745E-1,6.712330514E-1
1.335947928E0,7.626021653E-2,-1.714019775E-1,-6.281752586E-1,6.555901266E-1
1.340963709E0,1.043103859E-1,-1.797828674E-1,-6.249165535E-1,6.585766735E-1
1.345979490E0,2.062873989E-1,-1.463308334E-1,-5.899519920E-1,6.418804847E-1
1.350995324E0,1.573133469E-1,-1.259727478E-1,-4.968953133E-1,5.362103828E-1
1.356011105E0,1.134106219E-1,-1.450462341E-1,-4.773712158E-1,5.116479814E-1
1.361026938E0,1.508703530E-1,-1.391658783E-1,-5.074639320E-1,5.474017240E-1
1.366042719E0,1.833809465E-1,-1.085786819E-1,-5.704698563E-1,6.089776339E-1
1.371058501E0,1.416513324E-1,-8.934879303E-2,-6.211709976E-1,6.433519372E-1
1.376074334E0,1.049324796E-1,-6.970787048E-2,-6.979947090E-1,7.092718987E-1
1.381090115E0,1.473506838E-1,-5.924892426E-2,-7.674117088E-1,7.836730121E-1
1.386105896E0,1.656297445E-1,-6.248855591E-2,-7.168626785E-1,7.383970015E-1
1.391121730E0,8.334857225E-2,-6.751060486E-2,-6.254911423E-1,6.346210171E-1
1.396137511E0,1.278659254E-1,-3.625679016E-2,-5.579400063E-1,5.735514801E-1
1.401153344E0,1.672484279E-1,1.887989044E-2,-5.765085220E-1,6.005751933E-1
1.406169126E0,1.277366579E-1,4.481649399E-2,-6.767168045E-1,6.901237609E-1
1.411184907E0,1.263204217E-1,1.174163818E-1,-8.565125465E-1,8.737031521E-1
1.416200740E0,1.560904235E-1,1.978201866E-1,-1.037403107E0,1.067568383E0
1.421216521E0,1.404872686E-1,2.545428276E-1,-1.214965820E0,1.249268053E0
1.426232355E0,1.654665023E-1,2.683520317E-1,-1.339175224E0,1.375784234E0
1.431248136E0,1.306405067E-1,3.158397675E-1,-1.316823006E0,1.360457470E0
1.436263917E0,1.266923547E-1,2.989807129E-1,-1.243749619E0,1.285439043E0
1.441279751E0,1.538502425E-1,3.037643433E-1,-1.203584671E0,1.250823222E0
1.446295532E0,1.736828238E-1,3.324379921E-1,-1.160308361E0,1.219424551E0
1.451311313E0,1.765850335E-1,3.918223381E-1,-1.159373760E0,1.236468574E0
1.456327146E0,1.267028302E-1,4.005079269E-1,-1.210217476E0,1.281049002E0
1.461342928E0,1.368535906E-1,3.990497589E-1,-1.264997959E0,1.333487702E0
1.466358761E0,1.685394198E-1,3.924508095E-1,-1.280386925E0,1.349745847E0
1.471374542E0,1.353721321E-1,3.332614899E-1,-1.210774422E0,1.263077011E0
1.476390324E0,1.116017252E-1,3.217692375E-1,-1.132797718E0,1.182886747E0
1.481406157E0,1.405152380E-1,3.530488014E-1,-1.051151276E0,1.117724023E0
1.486421938E0,1.905589998E-1,3.385796547E-1,-1.027878761E0,1.098855615E0
1.491437719E0,1.543494612E-1,3.523950577E-1,-1.048475266E0,1.116828731E0
1.496453553E0,1.611911952E-1,3.705210686E-1,-1.074563026E0,1.148021847E0
1.501469334E0,1.800905168E-1,3.284258842E-1,-1.096615314E0,1.158818926E0
1.506485167E0,1.657112539E-1,3.011379242E-1,-1.137561798E0,1.188356476E0
1.511500949E0,2.293391228E-1,2.388525009E-1,-5.335307121E-1,6.279346871E-1
1.516516730E0,6.570234299E-1,2.438793182E-1,7.343888283E-1,1.015127509E0
1.521532563E0,4.702425003E-2,2.764000893E-1,-1.292076111E-1,3.087116716E-1
1.526548344E0,-3.166687489E-1,2.442088127E-1,-1.713271618E0,1.759322789E0
1.531564178E0,-3.308731318E-2,1.526346207E-1,-2.578603745E0,2.583329125E0
1.536579959E0,7.268619537E-2,1.860723495E-1,-2.015947342E0,2.025820794E0
1.541595792E0,1.715051383E-1,3.692655563E-1,-3.126010895E-1,5.133132618E-1
1.546611574E0,3.163950443E-1,3.921189308E-1,3.472957611E-1,6.119456068E-1
1.551627355E0,4.463533163E-1,4.623775482E-1,-4.962420464E-1,8.119608664E-1
1.556643188E0,1.416084766E-1,3.877024651E-1,-2.083170891E0,2.123668317E0
1.561658969E0,-1.528326571E-1,-2.440943718E-1,-1.967255116E0,1.988223472E0
1.566674751E0,1.345098317E-1,-4.478311539E-1,-2.563543320E-1,5.332571431E-1
1.571690584E0,6.776518375E-2,-5.885200500E-1,1.349167347E0,1.473499406E0
1.576706365E0,3.228927851E-1,-6.349377632E-1,1.778595924E0,1.915935588E0
1.581722199E0,1.235726848E-1,-6.255102158E-1,1.563124180E0,1.688161852E0
1.586737980E0,-2.279023826E-1,-8.401398659E-1,9.500365257E-1,1.288543321E0
1.591753813E0,-7.869718969E-2,-9.535179138E-1,8.091921806E-1,1.253068891E0
1.596769594E0,1.685072631E-1,-8.655753136E-1,1.234599590E0,1.517185377E0
1.601785376E0,4.869109988E-1,-6.612386703E-1,1.271397114E0,1.513528831E0
1.606801209E0,2.198857069E-2,-5.721435547E-1,8.780469894E-1,1.048235785E0
1.611816990E0,-2.204105407E-1,-5.041279793E-1,-2.221822739E-2,5.506536802E-1
1.616832824E0,1.373867393E-1,-4.031267166E-1,8.860397339E-1,9.830832497E-1
1.621848605E0,3.214693069E-1,-4.219961166E-1,1.372743130E0,1.471681670E0
1.626864386E0,3.064708114E-1,-3.964390755E-1,1.376317501E0,1.464697294E0
1.631880219E0,1.744323224E-1,-3.306584358E-1,8.369464874E-1,9.166466381E-1
1.636896001E0,7.683277130E-3,-3.571419716E-1,1.132373810E-1,3.747427452E-1
1.641911834E0,7.380025834E-2,-4.113597870E-1,-3.624773026E-1,5.532207040E-1
1.646927615E0,1.493436247E-1,-4.016304016E-1,-3.396048546E-1,5.467558459E-1
1.651943396E0,1.074159518E-1,-3.515362740E-1,5.180025101E-2,3.712131525E-1
1.656959230E0,1.562383771E-1,-3.038582802E-1,3.978834152E-1,5.244535223E-1
1.661975011E0,2.644481659E-1,-2.540864944E-1,5.147070885E-1,6.319938022E-1
1.666990844E0,3.246169388E-1,-2.097501755E-1,4.169244766E-1,5.685044523E-1
1.672006626E0,1.261551678E-1,-2.028088570E-1,1.783890724E-1,2.981094094E-1
1.677022459E0,7.928068191E-2,-2.553486824E-1,-1.652812958E-1,3.143346670E-1
1.682038240E0,1.528724581E-1,-3.149814606E-1,-4.755687714E-1,5.905497145E-1
1.687054021E0,1.976488531E-1,-2.755546570E-1,-5.130338669E-1,6.149790132E-1
1.692069855E0,5.671858788E-3,-1.963419914E-1,-2.111654282E-1,2.883976172E-1
1.697085636E0,-7.590784132E-2,-1.935739517E-1,1.598491669E-1,2.622682430E-1
1.702101469E0,1.555611491E-1,-3.143305779E-1,3.899779320E-1,5.244861969E-1
1.707117251E0,1.850869656E-1,-4.102339745E-1,5.010528564E-1,6.735006040E-1
1.712133032E0,4.218311608E-2,-3.915090561E-1,3.948726654E-1,5.576586574E-1
1.717148865E0,5.316762626E-2,-3.167910576E-1,1.166744232E-1,3.417547244E-1
1.722164646E0,1.623266786E-1,-2.080235481E-1,-1.566114426E-1,3.068401719E-1
1.727180480E0,8.470536768E-2,-2.059092522E-1,-2.100200653E-1,3.060752314E-1
1.732196261E0,-4.636809230E-3,-2.698616982E-1,-2.115116119E-1,3.429052320E-1
1.737212094E0,1.094480529E-1,-2.329211235E-1,-2.306756973E-1,3.456044030E-1
1.742227876E0,1.990689784E-1,-1.313300133E-1,-2.173976898E-1,3.227038675E-1
1.747243657E0,1.281745434E-1,-9.938287735E-2,-2.627115250E-1,3.087442554E-1
1.752259490E0,9.832352400E-2,-1.061525345E-1,-3.642196655E-1,3.919079493E-1
1.757275271E0,1.472811699E-1,-9.947395325E-2,-5.076475143E-1,5.378594697E-1
1.762291105E0,1.411760896E-1,-5.092954636E-2,-5.855007172E-1,6.044299767E-1
1.767306886E0,1.327462494E-1,1.522254944E-2,-6.028251648E-1,6.174556438E-1
1.772322719E0,1.746644229E-1,6.773424149E-2,-6.242656708E-1,6.517692965E-1
1.777338501E0,1.540780663E-1,5.888652802E-2,-6.401910782E-1,6.610993044E-1
1.782354282E0,8.827687055E-2,4.836797714E-2,-6.506395340E-1,6.583798830E-1
1.787370115E0,1.156309918E-1,4.538297653E-2,-6.867542267E-1,6.978979214E-1
1.792385896E0,1.550914347E-1,5.510234833E-2,-7.076215744E-1,7.265107807E-1
1.797401730E0,1.511106044E-1,6.302785873E-2,-6.702995300E-1,6.900060766E-1
1.802417511E0,7.555884123E-2,1.598539352E-1,-6.322107315E-1,6.564699750E-1
1.807433344E0,1.504957974E-1,1.566548347E-1,-6.243572235E-1,6.610685780E-1
1.812449126E0,1.536853909E-1,1.180319786E-1,-6.156225204E-1,6.454005230E-1
1.817464907E0,8.754661679E-2,7.256293297E-2,-6.680917740E-1,6.776993491E-1
1.822480740E0,1.168857962E-1,1.106066704E-1,-7.387132645E-1,7.560379699E-1
1.827496521E0,1.080783755E-1,1.696662903E-1,-7.892570496E-1,8.144901937E-1
1.832512355E0,5.351276696E-2,2.066509724E-1,-8.292713165E-1,8.563055278E-1
1.837528136E0,1.331457198E-1,2.049412727E-1,-8.324632645E-1,8.675965621E-1
1.842543969E0,1.693436801E-1,2.027168274E-1,-8.156223297E-1,8.573279296E-1
1.847559751E0,1.334329545E-1,1.949782372E-1,-7.621126175E-1,7.978950483E-1
1.852575532E0,1.549460739E-1,2.411308289E-1,-7.795324326E-1,8.305559438E-1
1.857591365E0,1.931497455E-1,2.550227642E-1,-8.533258438E-1,9.113223525E-1
1.862607146E0,1.428894103E-1,2.411303520E-1,-9.380588531E-1,9.790381209E-1
1.867622980E0,8.583725989E-2,2.114772797E-1,-9.978370667E-1,1.023606119E0
1.872638761E0,1.578340530E-1,2.261459827E-1,-9.967393875E-1,1.034187121E0
1.877654594E0,1.554417163E-1,2.304279804E-1,-8.870220184E-1,9.295521731E-1
1.882670376E0,1.029348373E-1,1.959693432E-1,-7.619752884E-1,7.934770975E-1
1.887686157E0,1.339877546E-1,1.969690323E-1,-6.860504150E-1,7.262332201E-1
1.892701990E0,1.315500438E-1,1.643080711E-1,-6.805124283E-1,7.123199571E-1
1.897717771E0,8.827231824E-2,1.195533276E-1,-6.902370453E-1,7.060539491E-1
1.902733605E0,7.641610503E-2,9.385871887E-2,-6.960525513E-1,7.064970165E-1
1.907749386E0,1.432740241E-1,1.066145897E-1,-6.476907730E-1,6.718611867E-1
1.912765219E0,9.982509911E-2,1.078822613E-1,-5.595083237E-1,5.784921754E-1
1.917781001E0,6.594772637E-2,7.637453079E-2,-4.673681259E-1,4.781371526E-1
1.922796834E0,1.014435440E-1,3.602814674E-2,-4.596309662E-1,4.720693223E-1
1.927812615E0,1.390924752E-1,6.216049194E-3,-4.476423264E-1,4.687952733E-1
1.932828396E0,9.295625985E-2,-4.657864571E-2,-4.576950073E-1,4.693561081E-1
1.937844230E0,9.284207225E-2,-2.876710892E-2,-4.490175247E-1,4.594169505E-1
1.942860011E0,1.283948869E-1,-3.579378128E-2,-3.785791397E-1,4.013584517E-1
1.947875844E0,8.001442254E-2,-4.797816277E-2,-2.678594589E-1,2.836422071E-1
1.952891626E0,9.654664993E-2,-9.393239021E-2,-1.933736801E-1,2.356648674E-1
1.957907459E0,1.700803339E-1,-1.233937740E-1,-1.430673599E-1,2.542078145E-1
1.962923240E0,1.668690443E-1,-1.315152645E-1,-1.025142670E-1,2.359040434E-1
1.967939074E0,1.135967225E-1,-1.446232796E-1,-1.290063858E-1,2.246391683E-1
1.972954855E0,1.299873888E-1,-1.720781326E-1,-1.602315903E-1,2.686666476E-1
1.977970688E0,1.057417095E-1,-1.992089748E-1,-1.483116150E-1,2.699293610E-1
1.982986469E0,7.699219882E-2,-2.661297321E-1,-7.409572601E-2,2.867804206E-1
1.988002303E0,9.142363816E-2,-2.670347691E-1,3.620052338E-2,2.845633978E-1
1.993018084E0,1.294134557E-1,-2.685551643E-1,1.874027252E-1,3.521214283E-1
1.998033865E0,7.408057153E-2,-2.943804264E-1,3.030490875E-1,4.289364941E-1
2.003049699E0,5.963641405E-2,-3.060028553E-1,3.355388641E-1,4.580180986E-1
2.008065480E0,7.850845158E-2,-3.152520657E-1,3.472204208E-1,4.755096871E-1
2.013081313E0,4.473039508E-2,-3.506565094E-1,3.572864532E-1,5.026076059E-1
2.018097094E0,-1.289084554E-2,-3.790264130E-1,3.608512878E-1,5.234891093E-1
2.023112928E0,7.573424280E-2,-3.621063232E-1,3.364381790E-1,5.000473109E-1
2.028128709E0,9.215100110E-2,-3.264472485E-1,3.437728882E-1,4.829486636E-1
2.033144542E0,4.159420729E-2,-2.890124321E-1,3.588085175E-1,4.626033033E-1
2.038160324E0,5.575768650E-2,-2.430372238E-1,2.786941528E-1,3.739604827E-1
2.043176105E0,1.273421347E-1,-2.079553604E-1,1.895322800E-1,3.088428991E-1
2.048191938E0,1.029619873E-1,-1.889810562E-1,1.103057861E-1,2.418312984E-1
2.053207719E0,6.202884018E-2,-1.982650757E-1,3.612136841E-2,2.108586505E-1
2.058223553E0,1.362016499E-1,-1.906459332E-1,-5.223178864E-2,2.400519132E-1
2.063239334E0,1.360349059E-1,-1.735043526E-1,-8.551025391E-2,2.364767631E-1
2.068255167E0,1.334095746E-1,-1.182072163E-1,-9.011840820E-2,1.997307890E-1
2.073270949E0,1.214762926E-1,-1.107273102E-1,-9.715080261E-2,1.909327246E-1
2.078286782E0,1.810634732E-1,-1.272203922E-1,-9.947586060E-2,2.426199835E-1
2.083302563E0,1.379222274E-1,-1.459848881E-1,-8.273506165E-2,2.172077779E-1
2.088318344E0,1.213264763E-1,-1.551601887E-1,-8.282756805E-2,2.136707842E-1
2.093334178E0,1.213907152E-1,-1.020300388E-1,-8.531856537E-2,1.800696870E-1
2.098349959E0,9.755598009E-2,-1.063318253E-1,-7.353687286E-2,1.619607915E-1
2.103365792E0,1.073512062E-1,-1.249611378E-1,-8.335018158E-2,1.846261634E-1
2.108381574E0,1.289655715E-1,-1.291108131E-1,-7.407093048E-2,1.969472606E-1
2.113397407E0,1.097840518E-1,-1.258125305E-1,-5.286216736E-2,1.751449103E-1
2.118413188E0,4.268644750E-2,-1.107077599E-1,-5.807590485E-2,1.321028070E-1
2.123429021E0,5.452136695E-2,-5.781435966E-2,-1.088294983E-1,1.347551088E-1
2.128444803E0,6.353999674E-2,8.021831512E-3,-1.885108948E-1,1.990930396E-1
2.133460636E0,4.633818567E-2,1.925897598E-2,-3.378305435E-1,3.415371308E-1
2.138476417E0,8.216582984E-2,4.485034943E-2,-5.232887268E-1,5.315955879E-1
2.143492251E0,1.061500385E-1,4.185748100E-2,-6.205654144E-1,6.309685515E-1
2.148508032E0,8.965383470E-2,4.904317856E-2,-6.249513626E-1,6.332513317E-1
2.153523813E0,4.436850548E-2,5.249452591E-2,-5.102682114E-1,5.148765746E-1
2.158539646E0,6.608189642E-2,1.694154739E-2,-3.554677963E-1,3.619546757E-1
2.163555428E0,9.957173467E-2,-6.899929047E-2,-2.035140991E-1,2.368404969E-1
2.168571261E0,9.923201799E-2,-1.118290424E-1,-8.538436890E-2,1.721720610E-1
2.173587042E0,8.475179970E-2,-1.140952110E-1,-5.834960938E-2,1.536400392E-1
2.178602876E0,1.061772928E-1,-1.306219101E-1,-7.915019989E-2,1.860119755E-1
2.183618657E0,8.205506951E-2,-1.208386421E-1,-9.036254883E-2,1.717568109E-1
2.188634490E0,6.515473127E-2,-1.611471176E-1,-1.015443802E-1,2.013077089E-1
2.193650271E0,1.129164174E-1,-1.584215164E-1,-9.123420715E-2,2.148747885E-1
2.198666105E0,1.534173489E-1,-1.528720856E-1,-4.025173187E-2,2.202883551E-1
2.203681886E0,1.101674736E-1,-1.707246304E-1,3.938007355E-2,2.069651223E-1
2.208697719E0,6.675332785E-2,-1.592245102E-1,6.164646149E-2,1.833268601E-1
2.213713501E0,1.072660387E-1,-1.521720886E-1,4.570198059E-2,1.917055519E-1
2.218729282E0,8.299036324E-2,-1.520082951E-1,3.572463989E-3,1.732243766E-1
2.223745115E0,7.814936340E-2,-1.470627785E-1,-4.804325104E-2,1.733289871E-1
2.228760896E0,8.980648220E-2,-1.302978992E-1,-7.092189789E-2,1.734147122E-1
2.233776730E0,6.791713834E-2,-9.708094597E-2,-1.033792496E-1,1.572409520E-1
2.238792511E0,4.820011556E-2,-9.719109535E-2,-1.208057404E-1,1.623680605E-1
2.243808344E0,5.488359928E-2,-8.365726471E-2,-1.596164703E-1,1.883830274E-1
2.248824126E0,4.484982789E-2,-6.372070312E-2,-1.958847046E-1,2.108142608E-1
2.253839959E0,2.524691820E-2,-6.381511688E-2,-2.391843796E-1,2.488351733E-1
2.258855740E0,7.720082253E-2,-3.417086601E-2,-2.776460648E-1,2.901981260E-1
2.263871574E0,1.168151870E-1,-1.728177071E-2,-2.613363266E-1,2.867771314E-1
2.268887355E0,4.441703856E-2,-1.290559769E-3,-2.168483734E-1,2.213543673E-1
2.273903188E0,1.052106917E-2,-3.147149086E-2,-2.133054733E-1,2.158711944E-1
2.278918969E0,7.201932371E-2,-4.313445091E-2,-2.740650177E-1,2.866339090E-1
2.283934803E0,6.425525248E-2,-8.628988266E-2,-2.561378479E-1,2.778151876E-1
2.288950584E0,3.983002901E-2,-8.687639236E-2,-2.194862366E-1,2.393912004E-1
2.293966417E0,7.018089294E-2,-9.486770630E-2,-1.594648361E-1,1.983791153E-1
2.298982199E0,9.549865872E-2,-6.721115112E-2,-9.757900238E-2,1.521807950E-1
2.303998032E0,3.259937465E-2,-1.038845778E-1,-7.182121277E-2,1.304339347E-1
2.309013813E0,2.746686339E-2,-1.187671423E-1,-6.288051605E-2,1.371642154E-1
2.314029594E0,1.005881652E-1,-1.426720619E-1,-1.832866669E-2,1.755256000E-1
2.319045428E0,1.020304561E-1,-1.587831974E-1,2.831935883E-2,1.908515230E-1
2.324061209E0,6.304170191E-2,-1.670517921E-1,7.707405090E-2,1.944761342E-1
2.329077042E0,1.049924493E-1,-1.580486298E-1,9.467887878E-2,2.120539409E-1
2.334092824E0,1.156712174E-1,-1.534295082E-1,8.373260498E-2,2.095986490E-1
2.339108657E0,8.386507630E-2,-1.579359770E-1,6.345558167E-2,1.897465011E-1
2.344124438E0,9.017796814E-2,-1.857028008E-1,4.105854034E-2,2.104837283E-1
2.349140271E0,8.451983333E-2,-1.770992279E-1,2.844429016E-2,1.982846852E-1
2.354156053E0,4.580496252E-2,-1.326034069E-1,4.210948944E-2,1.464751420E-1
2.359171886E0,5.953299999E-2,-1.002589464E-1,2.955627441E-2,1.202896828E-1
2.364187667E0,6.342263520E-2,-7.058227062E-2,9.973526001E-3,9.541361959E-2
2.369203501E0,3.891240060E-2,-9.857201576E-2,-5.940723419E-2,1.214900683E-1
2.374219282E0,2.397388220E-2,-8.684551716E-2,-1.663827896E-1,1.892092058E-1
2.379235115E0,8.556047082E-2,-4.543232918E-2,-2.513322830E-1,2.693559117E-1
2.384250896E0,8.705155551E-2,-1.476645470E-2,-2.859020233E-1,2.992256480E-1
2.389266730E0,5.739808083E-3,-1.384198666E-2,-2.871570587E-1,2.875477741E-1
2.394282511E0,4.131576419E-2,-2.819526196E-2,-2.672395706E-1,2.718804025E-1
2.399298292E0,7.416248322E-2,-2.390372753E-2,-2.238426208E-1,2.370168370E-1
2.404314126E0,2.351705730E-2,-6.036019325E-2,-1.476383209E-1,1.612249321E-1
2.409329907E0,2.558363974E-2,-1.036345959E-1,-7.444477081E-2,1.301409850E-1
2.414345740E0,5.118060112E-2,-9.202957153E-2,-3.986358643E-2,1.125966318E-1
2.419361521E0,5.272275209E-2,-9.722614288E-2,-3.407764435E-2,1.157320063E-1
2.424377355E0,3.310838342E-2,-8.828485012E-2,-3.549671173E-2,1.007491755E-1
2.429393136E0,7.049554586E-2,-8.680105209E-2,-7.494163513E-2,1.346116388E-1
2.434408969E0,7.654298097E-2,-8.304488659E-2,-7.846164703E-2,1.375191302E-1
2.439424751E0,2.112378180E-2,-1.246057749E-1,-7.724475861E-2,1.481201067E-1
2.444440584E0,1.831461489E-2,-8.061182499E-2,-7.608985901E-2,1.123537186E-1
2.449456365E0,7.729318738E-2,-6.090676785E-2,-8.685112000E-2,1.312516218E-1
2.454472199E0,4.325799644E-2,-1.008038521E-1,-6.905269623E-2,1.296184621E-1
2.459487980E0,2.851757407E-2,-1.215230227E-1,-4.430866241E-2,1.324551042E-1
2.464503813E0,6.848084927E-2,-9.924340248E-2,-1.975345612E-2,1.221846090E-1
2.469519594E0,6.759308279E-2,-6.525290012E-2,-2.518653870E-3,9.398462338E-2
2.474535428E0,1.911218464E-2,-8.392357826E-2,-2.344036102E-2,8.920702391E-2
2.479551209E0,5.928463489E-2,-7.175171375E-2,-5.372714996E-2,1.074689862E-1
2.484567042E0,7.043810934E-2,-6.935298443E-2,-8.141708374E-2,1.280628956E-1
2.489582824E0,2.691696584E-2,-8.845937252E-2,-4.954719543E-2,1.049023747E-1
2.494598657E0,1.931758225E-2,-8.853030205E-2,-4.408073425E-2,1.007665346E-1
2.499614438E0,4.982551187E-2,-6.028485298E-2,-4.581546783E-2,9.064161420E-2
2.504630271E0,3.716926277E-2,-4.435372353E-2,-4.994869232E-2,7.644395823E-2
2.509646053E0,1.031596959E-2,-5.772411823E-2,-1.040344238E-1,1.194221688E-1
2.514661834E0,4.556012154E-2,-4.785680771E-2,-1.554145813E-1,1.688777392E-1
2.519677667E0,8.517622203E-2,-4.818546772E-2,-1.447553635E-1,1.747310601E-1
2.524693449E0,3.448553383E-2,-5.381810665E-2,-1.414194107E-1,1.551937189E-1
2.529709282E0,2.426660061E-2,-2.215492725E-2,-1.382465363E-1,1.420979011E-1
2.534725063E0,4.006055743E-2,5.957007408E-3,-1.685113907E-1,1.733101930E-1
2.539740896E0,2.741524577E-2,-3.598630428E-2,-2.224578857E-1,2.270112789E-1
2.544756678E0,4.107347131E-2,-4.288136959E-2,-2.381458282E-1,2.454369113E-1
2.549772511E0,8.079797775E-2,-2.668380737E-2,-2.301025391E-1,2.453314437E-1
2.554788292E0,4.442466795E-2,-3.726732731E-2,-1.771268845E-1,1.863768709E-1
2.559804126E0,2.010245621E-2,-6.459081173E-2,-1.008930206E-1,1.214721504E-1
2.564819907E0,4.116124660E-2,-1.129616499E-1,-3.952693939E-2,1.265581349E-1
2.569835740E0,3.812064230E-2,-1.084334850E-1,-7.108688354E-3,1.151587491E-1
2.574851521E0,1.616528630E-2,-1.416935921E-1,3.695011139E-2,1.473217609E-1
2.579867355E0,3.151229024E-2,-1.242250204E-1,5.508422852E-2,1.394960658E-1
2.584883136E0,1.741900444E-1,4.314534664E-1,2.044754028E-1,5.082366138E-1
2.589898969E0,-4.748321772E-1,-1.298315763E0,6.442346573E-1,1.525164815E0
2.594914751E0,1.146032438E-1,-2.034787416E0,1.897045612E0,2.784290895E0
2.599930584E0,3.937266171E-1,-1.141983986E0,2.949195385E0,3.186989409E0
2.604946365E0,2.705555856E-1,-6.945037842E-1,3.599830627E0,3.676182310E0
2.609962199E0,3.964785337E-1,-1.771315336E-1,2.020738602E0,2.066870897E0
2.614977980E0,-1.491544396E-1,2.635598183E-2,7.412528992E-2,1.686304932E-1
2.619993813E0,-4.891231060E-1,9.252119064E-2,-1.731941223E0,1.802060483E0
2.625009594E0,-2.081559300E-1,1.243295670E-1,-2.441412926E0,2.453422876E0
2.630025428E0,4.588326812E-2,6.777942181E-2,-1.604284286E0,1.606370878E0
2.635041209E0,-7.676374912E-2,-6.411612034E-2,-8.529949188E-2,1.314517150E-1
2.640057042E0,8.782834560E-2,-4.482614994E-2,9.584150314E-1,9.634742210E-1
2.645072824E0,3.856415153E-1,6.673502922E-2,1.131831169E0,1.197587048E0
2.650088657E0,1.747250706E-1,1.189565659E-2,6.769981384E-1,6.992830874E-1
2.655104438E0,-6.429904699E-2,-4.358434677E-2,-1.281175613E-1,1.498268075E-1
2.660120219E0,-9.981831908E-2,-2.613627911E-2,-7.274341583E-1,7.347157659E-1
2.665136053E0,-6.284439564E-2,-1.570947170E-1,-6.451082230E-1,6.669278728E-1
2.670151834E0,-4.787275195E-2,-3.990273476E-1,4.709053040E-2,4.046382860E-1
2.675167667E0,-2.404426038E-2,-5.017196536E-1,9.217166901E-1,1.049696334E0
2.680183449E0,3.452952206E-2,-5.445234179E-1,1.538534164E0,1.632417047E0
2.685199282E0,4.954701662E-2,-7.272527218E-1,1.760491371E0,1.905434674E0
2.690215063E0,9.078604728E-2,-8.045209646E-1,1.628674507E0,1.818811903E0
2.695230896E0,3.121991456E-2,-6.015651226E-1,1.368035316E0,1.494782896E0
2.700246678E0,-1.471057534E-3,-5.477149487E-1,9.738016129E-1,1.117266043E0
2.705262511E0,4.251393676E-2,-4.149485230E-1,5.917577744E-1,7.239937673E-1
2.710278292E0,-5.677264929E-2,-2.883040607E-1,2.838592529E-1,4.085565329E-1
2.715294126E0,-1.022136211E-2,-1.425498128E-1,3.553581238E-2,1.472675094E-1
2.720309907E0,-7.192611694E-3,9.250044823E-3,-1.868324280E-1,1.871995009E-1
2.725325740E0,-1.940533519E-3,8.690628409E-2,-3.976659775E-1,4.070561356E-1
2.730341521E0,-2.247844636E-2,2.112300396E-1,-5.874290466E-1,6.246569419E-1
2.735357355E0,6.924290955E-2,3.313787878E-1,-8.229923248E-1,8.899004710E-1
2.740373136E0,6.502722204E-2,3.275724351E-1,-9.345159531E-1,9.923972523E-1
2.745388969E0,-8.726909757E-3,3.590924740E-1,-1.024907112E0,1.086028615E0
2.750404751E0,1.352950931E-3,4.678092599E-1,-1.184919357E0,1.273923552E0
2.755420584E0,6.607717276E-2,5.258775949E-1,-1.323494911E0,1.425676056E0
2.760436365E0,5.638993531E-2,6.304906607E-1,-1.538537025E0,1.663668981E0
2.765452199E0,4.973933101E-2,7.599585652E-1,-1.707936287E0,1.870042080E0
2.770467980E0,6.745040417E-3,8.521370888E-1,-1.853174210E0,2.039715119E0
2.775483813E0,7.181948423E-2,7.757085562E-1,-1.804574013E0,1.965545515E0
2.780499594E0,1.190760732E-2,6.556976438E-1,-1.693867683E0,1.816388978E0
2.785515428E0,8.541715145E-2,6.448559761E-1,-1.540258408E0,1.671984235E0
2.790531209E0,1.351401210E-1,8.389484882E-1,-1.503953934E0,1.727418552E0
2.795547042E0,4.879876971E-2,8.128240705E-1,-1.601488113E0,1.796615837E0
2.800562824E0,-3.938423097E-2,5.606348515E-1,-1.612801552E0,1.707920197E0
2.805578657E0,-3.136852384E-2,3.115022779E-1,-1.399485588E0,1.434077252E0
2.810594438E0,-2.596861124E-2,1.509230584E-1,-9.428472519E-1,9.552031610E-1
2.815610271E0,4.343490303E-2,9.974995255E-2,-4.058399200E-1,4.201698282E-1
2.820626053E0,6.446678936E-2,6.566511095E-2,-1.802730560E-2,9.377023768E-2
2.825641886E0,4.462344944E-2,-5.143167824E-2,1.419944763E-1,1.574766683E-1
2.830657667E0,1.053644717E-2,-1.723465025E-1,1.200389862E-1,2.102942982E-1
2.835673449E0,2.188599110E-2,-2.607469559E-1,1.243629456E-1,2.897138482E-1
2.840689282E0,-2.187171578E-2,-2.804522216E-1,1.931724548E-1,3.412439272E-1
2.845705063E0,-2.746398747E-2,-2.055044025E-1,2.833423615E-1,3.510971715E-1
2.850720896E0,7.491812110E-3,-1.391953230E-1,2.944641113E-1,3.257922314E-1
2.855736678E0,3.990691900E-2,-1.489058584E-1,2.051649094E-1,2.566284413E-1
2.860752511E0,2.204814553E-2,-1.847964823E-1,9.687042236E-2,2.098088161E-1
2.865768292E0,6.818890572E-3,-1.398792267E-1,-2.562808990E-2,1.423709743E-1
2.870784126E0,2.513705194E-2,-4.058215022E-2,-1.360168457E-1,1.441504929E-1
2.875799907E0,1.940159500E-2,1.220083237E-2,-1.841411591E-1,1.855619806E-1
2.880815740E0,-2.166387439E-2,-4.803541303E-2,-2.131357193E-1,2.195530897E-1
2.885831521E0,1.369914412E-2,-9.448677301E-2,-2.230291367E-1,2.426054670E-1
2.890847355E0,1.553021371E-2,-8.701607585E-2,-1.348867416E-1,1.612681558E-1
2.895863136E0,-1.909376830E-1,-2.442554384E-1,4.663181305E-2,3.135162579E-1
2.900878969E0,-4.521471262E-1,-1.173530579E0,1.184261322E0,1.727450700E0
2.905894751E0,-8.450062573E-2,-2.289490223E0,3.035043240E0,3.802682383E0
2.910910584E0,6.357954741E-1,-2.055143833E0,4.548707008E0,5.031757894E0
2.915926365E0,5.215655565E-1,-1.540764809E0,5.663326263E0,5.892304404E0
2.920942199E0,1.077369153E-1,-5.994451046E-1,4.266305447E0,4.309559588E0
2.925957980E0,1.186433062E-1,6.223762035E-1,7.272548676E-1,9.645351291E-1
2.930973813E0,1.621184498E-1,1.151812434E0,-3.248297691E0,3.450274216E0
2.935989594E0,-6.339318752E-1,1.121975258E-1,-4.330142975E0,4.377738696E0
2.941005428E0,-1.055710673E0,-8.158667088E-1,-2.711992264E0,3.022427096E0
2.946021209E0,-2.072263509E-1,-6.839367151E-1,2.170276642E-2,7.149707692E-1
2.951037042E0,7.619622946E-1,-4.410885274E-2,2.403966904E0,2.522219063E0
2.956052824E0,7.125402689E-1,1.834987700E-1,3.221210480E0,3.304176507E0
2.961068657E0,7.568806410E-3,2.181781381E-1,1.892924786E0,1.905471918E0
2.966084438E0,-8.962699771E-2,3.633730412E-1,-7.764272690E-1,8.619235870E-1
2.971100271E0,-1.546069980E-2,4.004167914E-1,-2.745714188E0,2.774800721E0
2.976116053E0,-2.341642827E-1,2.497003227E-1,-2.957324028E0,2.977070468E0
2.981131886E0,-4.145952761E-1,1.974970251E-1,-1.801487923E0,1.859100065E0
2.986147667E0,-9.414771199E-2,2.247782350E-1,-2.844066620E-1,3.745346392E-1
2.991163449E0,2.500361502E-1,1.437028944E-1,7.376337051E-1,7.920051018E-1
2.996179282E0,2.577837408E-1,5.413189530E-2,9.189186096E-1,9.559257974E-1
3.001195063E0,1.248113438E-1,1.695849001E-1,3.254384995E-1,3.876172427E-1
3.006210896E0,-3.545314074E-2,2.257890105E-1,-4.702348709E-1,5.228369117E-1
3.011226678E0,-1.989396662E-1,2.674007416E-2,-9.036836624E-1,9.257084768E-1
3.016242511E0,-1.513216496E-1,-2.085440755E-1,-6.457214355E-1,6.952302103E-1
3.021258292E0,8.470428735E-2,-2.845739722E-1,1.319980621E-2,2.972059839E-1
3.026274126E0,1.895127296E-1,-9.289991856E-2,5.967245102E-1,6.329499274E-1
3.031289907E0,7.072085887E-2,1.780906320E-1,7.226362228E-1,7.476100746E-1
3.036305740E0,-2.577482164E-2,1.915940642E-1,2.053785324E-1,2.820513578E-1
3.041321521E0,1.274187863E-2,9.742212296E-2,-5.069332123E-1,5.163668340E-1
3.046337355E0,-1.035963893E-1,-3.962904215E-2,-8.212070465E-1,8.286637956E-1
3.051353136E0,-1.665973514E-1,-3.699803352E-2,-7.190313339E-1,7.390058127E-1
3.056368969E0,2.108770609E-2,7.787966728E-2,-3.374223709E-1,3.469348502E-1
3.061384751E0,1.190086901E-1,1.141683459E-1,1.103982925E-1,1.984572058E-1
3.066400584E0,1.041944325E-2,3.772974014E-2,2.658691406E-1,2.687349959E-1
3.071416365E0,2.607153356E-2,9.338039160E-2,5.550384521E-2,1.117152596E-1
3.076432199E0,6.566160917E-2,2.365947962E-1,-3.550462723E-1,4.316785841E-1
3.081447980E0,-3.568373621E-2,3.273121715E-1,-7.621517181E-1,8.302299851E-1
3.086463813E0,-6.425333023E-2,3.435163498E-1,-1.082101822E0,1.137135140E0
3.091479594E0,-1.834034920E-2,3.714352250E-1,-1.188341141E0,1.245172744E0
3.096495428E0,-2.084688842E-2,3.327429891E-1,-1.043005943E0,1.094994926E0
3.101511209E0,-2.963583171E-2,3.370785117E-1,-8.161516190E-1,8.835177818E-1
3.106527042E0,-2.839477360E-2,4.950056672E-1,-7.632360458E-1,9.101462165E-1
3.111542824E0,1.441837996E-1,1.046610475E0,-1.278018951E0,1.658166124E0
3.116558657E0,2.766363025E-1,1.820458889E0,-2.992980003E0,3.514047170E0
3.121574438E0,2.707068324E-1,1.129417300E0,-3.514040947E0,3.700993029E0
3.126590271E0,-6.996907592E-1,4.405900836E-1,-3.345241547E0,3.445914652E0
3.131606053E0,-2.425044626E-1,7.735699415E-1,-2.927759171E0,3.037925712E0
3.136621886E0,3.420325816E-1,1.096387386E0,-2.276959419E0,2.550214851E0
3.141637667E0,4.612430334E-1,7.349309921E-1,-1.692406654E0,1.901869865E0
3.146653501E0,-3.576423824E-1,1.133292764E-1,-1.193291664E0,1.250878329E0
3.151669282E0,-2.100263983E-1,-2.053974569E-2,-1.197952271E0,1.216397390E0
3.156685063E0,2.297845781E-1,-1.452299654E-1,-1.043667793E0,1.078487440E0
3.161700896E0,1.718438119E-1,-3.297877908E-1,-5.299549103E-1,6.474121481E-1
3.166716678E0,-1.877916604E-1,-4.472284019E-1,-6.854343414E-2,4.898746304E-1
3.171732511E0,-5.394949019E-2,-3.239515722E-1,-7.768726349E-2,3.374766355E-1
3.176748292E0,1.396284997E-1,-3.898147941E-1,-2.530746460E-1,4.852818439E-1
3.181764126E0,2.463399619E-2,-3.721378446E-1,-2.716426849E-1,4.613926282E-1
3.186779907E0,-3.636795282E-1,-1.003924370E0,-1.454849243E-1,1.077632963E0
3.191795740E0,-1.434522718E-1,-9.737883806E-1,3.213310242E-1,1.035420683E0
3.196811521E0,3.640683591E-1,-9.221988916E-1,1.100016594E0,1.480889284E0
3.201827355E0,1.252055764E-1,-9.800321460E-1,1.671445847E0,1.941615477E0
3.206843136E0,7.581408322E-2,-8.773066998E-1,1.483630180E0,1.725274857E0
3.211858969E0,1.791485250E-1,-1.781243086E-1,4.564323425E-1,5.216828027E-1
3.216874751E0,-1.956866682E-1,-4.834461808E-1,-3.571958542E-1,6.321410919E-1
3.221890584E0,-5.642724633E-1,-6.487795115E-1,-7.780370712E-1,1.159594736E0
3.226906365E0,1.521775275E-1,-1.282092690E0,1.612939835E-1,1.301128516E0
3.231922199E0,-1.998963505E-1,-2.736640930E0,3.101395130E0,4.140991896E0
3.236937980E0,-9.704328775E-1,-3.647366047E0,6.369031906E0,7.403349679E0
3.241953813E0,1.958962679E-1,-3.121787548E0,8.398199081E0,8.961790036E0
3.246969594E0,1.292942047E0,-2.691132545E0,8.623422623E0,9.125640320E0
3.251985428E0,2.928895950E-1,-2.509762764E0,7.083791733E0,7.520957303E0
3.257001209E0,-3.592536449E-1,-1.859075665E0,4.007100105E0,4.431938263E0
3.262017042E0,-1.528946161E-1,-9.837436080E-1,9.982891083E-1,1.409861480E0
3.267032824E0,6.373901665E-2,1.988198757E-1,-1.309651375E0,1.326189552E0
3.272048657E0,-1.524825543E-1,9.713214040E-1,-2.903347015E0,3.065312397E0
3.277064438E0,-4.670448899E-1,9.821931720E-1,-3.341286659E0,3.513834216E0
3.282080271E0,-2.224903852E-1,5.424509645E-1,-2.792139053E0,2.853032687E0
3.287096053E0,-6.123299897E-2,2.292525768E-1,-1.426728249E0,1.446326284E0
3.292111834E0,1.507610828E-1,9.165763855E-2,1.899204254E-1,2.592292321E-1
3.297127667E0,1.685851812E-1,-2.054807246E-1,1.435920715E0,1.460312156E0
3.302143501E0,-1.659154892E-3,-4.215831757E-1,1.855051041E0,1.902353671E0
3.307159282E0,2.963776886E-2,-4.352028072E-1,1.436359406E0,1.501135644E0
3.312175063E0,6.590133905E-2,-3.849151134E-1,7.212362289E-1,8.201733530E-1
3.317190896E0,2.289159596E-2,-1.670685410E-1,1.642694473E-1,2.354153221E-1
3.322206678E0,-5.651511252E-2,2.585568726E-1,-2.706451416E-1,3.785424771E-1
3.327222511E0,-9.217409790E-2,5.112949610E-1,-7.509632111E-1,9.131617304E-1
3.332238292E0,-2.178925276E-2,5.012230873E-1,-1.297993660E0,1.391577125E0
3.337254126E0,-1.823690534E-2,2.763732672E-1,-1.595941544E0,1.619797573E0
3.342269907E0,-4.876250029E-2,1.529719234E-1,-1.504014969E0,1.512560484E0
3.347285740E0,-6.255656481E-3,3.906187415E-1,-1.307124138E0,1.364256444E0
3.352301521E0,8.073861152E-2,8.533353806E-1,-1.304077148E0,1.560550289E0
3.357317355E0,6.940994412E-2,1.129613519E0,-1.680850983E0,2.026352503E0
3.362333136E0,2.026869357E-2,1.167763472E0,-2.343489647E0,2.618401434E0
3.367348969E0,-6.153404713E-2,1.072655678E0,-2.901832581E0,3.094351138E0
3.372364751E0,-9.929999709E-2,1.065155864E0,-3.016613960E0,3.200683878E0
3.377380584E0,-9.038910270E-3,1.101982117E0,-2.702970505E0,2.918988838E0
3.382396365E0,5.918481201E-2,9.282795787E-1,-2.112301826E0,2.308034840E0
3.387412199E0,1.921969652E-2,5.158649087E-1,-1.405323029E0,1.497136873E0
3.392427980E0,-1.979336143E-2,2.074383795E-1,-7.568550110E-1,7.850171757E-1
3.397443813E0,1.679357886E-2,8.733299375E-2,-2.648782730E-1,2.794093334E-1
3.402459594E0,-2.302351594E-2,-2.271940112E-1,2.978944778E-1,3.753509304E-1
3.407475376E0,-1.105930358E-1,-5.259521008E-1,7.712001801E-1,9.400032710E-1
3.412491209E0,3.922792524E-2,-7.095924616E-1,1.164750099E0,1.364442408E0
3.417507042E0,3.095778823E-2,-7.830847502E-1,1.614938736E0,1.795050760E0
3.422522824E0,-2.891603112E-2,-9.458708167E-1,1.963926792E0,2.180026647E0
3.427538657E0,-7.953788340E-2,-1.069388866E0,2.204671383E0,2.451631034E0
3.432554438E0,2.226978540E-4,-8.210420609E-1,2.167605400E0,2.317891992E0
3.437570271E0,4.312842339E-2,-6.234523058E-1,1.786217690E0,1.892386449E0
3.442586053E0,-5.229085684E-3,-2.922315001E-1,1.015652657E0,1.056871284E0
3.447601834E0,2.914929390E-2,7.613463700E-2,-2.154445648E-2,8.432276022E-2
3.452617667E0,-4.046940804E-2,3.435310125E-1,-9.280719757E-1,9.904387521E-1
3.457633449E0,-1.191573441E-1,3.835004866E-1,-1.393306732E0,1.450025774E0
3.462649282E0,-1.992363781E-1,2.471712232E-1,-1.336618423E0,1.373804046E0
3.467665063E0,-1.166076958E-1,2.348033190E-1,-9.428548813E-1,9.786241773E-1
3.472680896E0,3.440416604E-2,2.447466254E-1,-4.420251846E-1,5.064294829E-1
3.477696678E0,8.616352081E-2,2.604955733E-1,-1.259441376E-1,3.019006820E-1
3.482712511E0,2.297662199E-2,2.408322096E-1,-1.401653290E-1,2.795968487E-1
3.487728292E0,-2.045427263E-2,2.137744725E-1,-4.100856781E-1,4.629126977E-1
3.492744126E0,-1.540809870E-3,1.746987849E-1,-6.436786652E-1,6.669664636E-1
3.497759907E0,-4.450741410E-2,1.146603525E-1,-6.354265213E-1,6.472208049E-1
3.502775740E0,-4.440408945E-2,1.132395715E-1,-4.358978271E-1,4.525503722E-1
3.507791521E0,-2.284921706E-2,1.159128845E-1,-2.318572998E-1,2.602223875E-1
3.512807355E0,6.858821958E-2,8.371540904E-2,-4.245948792E-2,1.162558458E-1
3.517823136E0,-1.919403672E-2,6.531382799E-1,7.728576660E-2,6.579750097E-1
3.522838969E0,-1.657976806E-1,5.136170983E-2,-2.048912048E-1,2.685280282E-1
3.527854751E0,-1.664004326E-1,-9.038877487E-1,-6.849384308E-2,9.216255057E-1
3.532870532E0,2.738212943E-1,-1.383180737E0,1.420451164E0,2.001461607E0
3.537886365E0,-4.108571410E-1,-1.321889400E0,2.894745827E0,3.208698892E0
3.542902146E0,-4.898521304E-2,-1.338732839E0,3.584367752E0,3.826525493E0
3.547917980E0,4.372237325E-1,-1.517226934E0,4.013759136E0,4.313166420E0
3.552933761E0,1.057192832E-1,-1.533537865E0,3.884157658E0,4.177271317E0
3.557949594E0,-3.340139091E-1,-1.682499528E0,3.167382717E0,3.602038760E0
3.562965376E0,9.626702964E-2,-1.020393610E0,2.263574600E0,2.484801890E0
3.567981209E0,4.003986716E-3,-7.776318192E-1,1.553089142E0,1.736897568E0
3.572996990E0,-1.600886732E-1,-8.555423617E-1,5.050134659E-1,1.006290076E0
3.578012824E0,-6.084938347E-2,-3.276190758E-1,5.945301056E-2,3.384842193E-1
3.583028605E0,-2.054399997E-1,6.528806686E-2,-1.476993561E-1,2.613105909E-1
3.588044438E0,1.165544987E-2,8.696722984E-2,-5.372543335E-1,5.443724529E-1
3.593060219E0,-5.349601805E-2,9.362483025E-2,-7.238788605E-1,7.318661335E-1
3.598076053E0,2.457386255E-2,2.544904947E-1,-8.009090424E-1,8.407286011E-1
3.603091834E0,-7.924661040E-2,2.674462795E-1,-8.519487381E-1,8.964508855E-1
3.608107667E0,-5.352205038E-2,3.279234171E-1,-1.015431404E0,1.068409713E0
3.613123449E0,-6.618127227E-3,3.599002361E-1,-1.118692398E0,1.175178566E0
3.618139282E0,-9.069177508E-1,1.533093452E0,-8.460321426E-1,1.971964941E0
3.623155063E0,1.513562083E0,1.254374385E0,-9.411735535E-1,2.179479969E0
3.628170844E0,4.848174453E-1,2.485344410E-1,-1.084423065E0,1.213585888E0
3.633186678E0,-1.506690264E0,3.820894480E0,-1.873714447E0,4.514438615E0
3.638202511E0,2.358166218E0,5.278272629E0,-8.997530937E0,1.069470303E1
3.643218292E0,-1.013912439E0,3.560041428E0,-1.465201283E1,1.511235896E1
3.648234074E0,-3.014533281E0,-2.167533636E-1,-1.167179966E1,1.205675330E1
3.653249907E0,2.915358841E-1,-1.487811685E0,-4.043398857E0,4.318292614E0
3.658265688E0,5.234123766E-2,-1.725461960E0,4.104932308E0,4.453136853E0
3.663281521E0,7.683731318E-1,-1.372476697E0,9.676158905E0,9.803169932E0
3.668297303E0,1.600552440E0,-3.921461105E-1,9.551477432E0,9.692588293E0
3.673313136E0,1.076207519E0,7.784199715E-2,5.502820492E0,5.607612269E0
3.678328917E0,-8.401169777E-1,-3.411109447E-1,-2.862443924E-1,9.508359822E-1
3.683344751E0,-1.041174173E0,-1.560138464E-1,-4.424833298E0,4.548355053E0
3.688360532E0,-1.980001181E-1,1.226007938E-1,-5.460360527E0,5.465324518E0
3.693376365E0,-4.387752116E-1,1.696509123E-1,-3.054337502E0,3.090353166E0
3.698392146E0,-3.981174827E-1,-1.539561749E-1,4.824934006E-1,6.442048707E-1
3.703407980E0,2.752340138E-1,-5.597470999E-1,2.967698097E0,3.032540614E0
3.708423761E0,4.193094969E-1,-1.006638765E0,3.946045876E0,4.093949207E0
3.713439542E0,2.872527540E-1,-1.202192783E0,3.556088924E0,3.764777559E0
3.718455376E0,6.740639359E-2,-1.070970535E0,2.431280613E0,2.657564097E0
3.723471157E0,-2.018440068E-1,-7.937053442E-1,1.338174820E0,1.568891655E0
3.728486990E0,-2.446704805E-1,-4.497076273E-1,6.022567749E-1,7.904516538E-1
3.733502771E0,-1.600562483E-1,-3.627471924E-1,2.088384628E-1,4.481261338E-1
3.738518605E0,1.570679247E-2,-3.887314796E-1,1.836948395E-1,4.302355874E-1
3.743534386E0,-9.636387229E-3,-2.596718073E-1,3.685112000E-1,4.509133087E-1
3.748550219E0,1.948809624E-2,-1.288609505E-1,5.310878754E-1,5.468448243E-1
3.753566001E0,2.151620388E-2,-2.109646797E-2,4.707679749E-1,4.717313792E-1
3.758581834E0,-9.634631872E-2,-2.918481827E-2,1.810321808E-1,2.071400908E-1
3.763597615E0,-1.056523025E-1,1.849842072E-2,-2.080802917E-1,2.340982879E-1
3.768613449E0,2.341826260E-2,6.334242821E-1,-5.400047302E-1,8.326943286E-1
3.773629230E0,2.419940531E-1,1.292030811E0,-1.603037834E0,2.073073814E0
3.778645011E0,-5.789470673E-2,1.161563873E0,-3.259821892E0,3.461072261E0
3.783660844E0,-4.348977506E-1,3.229955435E-1,-3.844223976E0,3.882205578E0
3.788676678E0,-3.910586834E-1,-1.755219698E-1,-2.376346588E0,2.414696246E0
3.793692459E0,-1.566694081E-1,-1.857781410E-1,1.837692261E-1,3.046800774E-1
3.798708240E0,2.723140419E-1,7.240295410E-2,2.003104210E0,2.022825648E0
3.803724074E0,4.811776578E-1,2.255573273E-1,2.227149010E0,2.289672631E0
3.808739855E0,2.164394855E-1,1.070948839E-1,1.050053596E0,1.077463652E0
3.813755688E0,-1.413836777E-1,-3.737390041E-2,-5.741252899E-1,5.924575945E-1
3.818771469E0,-2.618954778E-1,-2.123188972E-2,-1.626287460E0,1.647376987E0
3.823787303E0,-1.730596125E-1,3.348684311E-2,-1.505140305E0,1.515426783E0
3.828803084E0,-1.061068326E-1,5.577969551E-2,-5.594968796E-1,5.721947157E-1
3.833818917E0,3.859321773E-2,-3.574228287E-2,4.727382660E-1,4.756557740E-1
3.838834699E0,1.002836153E-1,-1.756646633E-1,1.082066536E0,1.100810095E0
3.843850532E0,6.822841614E-2,-2.759628296E-1,1.159131050E0,1.193480369E0
3.848866313E0,-1.901853085E-2,-2.710455656E-1,8.363790512E-1,8.794073689E-1
3.853882094E0,-3.688478470E-2,-1.623518467E-1,3.895311356E-1,4.236190683E-1
3.858897928E0,-9.280045331E-2,-6.605184078E-2,2.700138092E-2,1.170634203E-1
3.863913709E0,-1.339727938E-1,2.165079117E-2,-2.104825974E-1,2.504403922E-1
3.868929542E0,-9.092387557E-2,6.003141403E-2,-3.876285553E-1,4.026497469E-1
3.873945324E0,-8.093383908E-2,2.819454670E-2,-4.137601852E-1,4.225431453E-1
3.878961157E0,-8.521993458E-2,-1.209020615E-3,-2.557544708E-1,2.695816172E-1
3.883976938E0,-9.969669580E-2,-6.134986877E-3,-2.392482758E-2,1.027105963E-1
3.888992771E0,-4.721151292E-2,-1.037311554E-2,1.835622787E-1,1.898200165E-1
3.894008553E0,-1.911734045E-2,7.090330124E-3,2.377281189E-1,2.386009304E-1
3.899024386E0,-7.643401623E-4,5.045068264E-2,1.221389771E-1,1.321506160E-1
3.904040167E0,-4.472576082E-2,1.019595861E-1,-1.197586060E-1,1.635184228E-1
3.909056001E0,-6.643871963E-2,1.178342104E-1,-3.609504700E-1,3.854662714E-1
3.914071782E0,-6.167608500E-2,1.244474649E-1,-5.129671097E-1,5.314380177E-1
3.919087615E0,-3.063663840E-2,1.150226593E-1,-4.899187088E-1,5.041717535E-1
3.924103396E0,-3.066836298E-2,1.379601955E-1,-3.136615753E-1,3.440307368E-1
3.929119178E0,-1.197856665E-2,1.356310844E-1,-1.899757385E-1,2.337307390E-1
3.934135011E0,3.754107654E-2,1.675773859E-1,-1.593971252E-1,2.343052629E-1
3.939150792E0,3.443503380E-2,1.591862440E-1,-2.504205704E-1,2.987247795E-1
3.944166626E0,-5.476726592E-2,1.719092131E-1,-4.029798508E-1,4.415257536E-1
3.949182407E0,-5.089029670E-3,2.266706228E-1,-5.714740753E-1,6.148073586E-1
3.954198240E0,-5.794841051E-2,1.914621592E-1,-6.936550140E-1,7.219231643E-1
3.959214021E0,-3.354488313E-2,2.695131302E-1,-7.624225616E-1,8.093520551E-1
3.964229855E0,-2.021819353E-3,2.607767582E-1,-7.517261505E-1,7.956763228E-1
3.969245636E0,-7.304719090E-2,1.328550577E-1,-6.475248337E-1,6.650374190E-1
3.974261417E0,-1.005199999E-1,9.035420418E-2,-3.879985809E-1,4.108662208E-1
3.979277251E0,8.202850819E-3,1.607713699E-1,-1.170244217E-1,1.990211934E-1
3.984293032E0,-1.971749961E-2,4.145717621E-2,1.269426346E-1,1.349885541E-1
3.989308865E0,-9.763428569E-2,-1.754410267E-1,3.246450424E-1,3.817150916E-1
3.994324646E0,-5.867314339E-2,-3.106465340E-1,5.479345322E-1,6.325947031E-1
3.999340480E0,-1.776951551E-2,-2.823897600E-1,6.938915253E-1,7.493631837E-1
4.004356261E0,2.398458123E-2,-2.756446600E-1,6.910228729E-1,7.443573400E-1
4.009372094E0,-1.260882467E-1,-2.153295279E-1,5.014810562E-1,5.601323962E-1
4.014387876E0,-7.978303730E-2,-1.245113611E-1,1.018075943E-1,1.795360642E-1
4.019403709E0,-6.929339468E-2,-9.707915783E-2,-3.115787506E-1,3.336274198E-1
4.024419490E0,-1.109596640E-1,-1.403657198E-1,-4.851770401E-1,5.171183062E-1
4.029435271E0,-7.064890862E-2,-1.107276678E-1,-4.240970612E-1,4.439709472E-1
4.034451105E0,4.186733067E-2,-6.911766529E-2,-2.364301682E-1,2.498586589E-1
4.039466886E0,2.549393475E-2,-9.985065460E-2,6.785583496E-2,1.233876342E-1
4.044482719E0,-4.611825943E-2,-1.228541136E-1,4.382667542E-1,4.574907375E-1
4.049498501E0,-2.945144475E-2,-5.668628216E-2,6.977739334E-1,7.006919325E-1
4.054514334E0,2.259661257E-2,-2.508759499E-3,7.342376709E-1,7.345895848E-1
4.059530115E0,2.191521227E-2,-1.885175705E-2,5.385303497E-1,5.393056674E-1
4.064545949E0,-2.407361567E-2,3.467273712E-2,2.090873718E-1,2.133055713E-1
4.069561730E0,-7.213798165E-2,8.271956444E-2,-7.922363281E-2,1.353617329E-1
4.074577511E0,-1.054726988E-1,7.909190655E-2,-2.761373520E-1,3.059932304E-1
4.079593344E0,-8.348917961E-2,5.951309204E-2,-3.936996460E-1,4.068312457E-1
4.084609126E0,-8.268025517E-2,1.969265938E-2,-3.842592239E-1,3.935466638E-1
4.089624959E0,-5.764979124E-2,-1.320397854E-2,-2.361307144E-1,2.434246450E-1
4.094640740E0,-3.542216122E-2,4.477858543E-3,-2.846431732E-2,4.566177924E-2
4.099656574E0,-2.323855460E-2,3.701889515E-2,1.406030655E-1,1.472401136E-1
4.104672355E0,-2.289573848E-2,6.533026695E-2,1.611185074E-1,1.753608623E-1
4.109688188E0,-2.454240620E-2,6.302499771E-2,5.718326569E-2,8.856865085E-2
4.114703969E0,-5.030027032E-2,1.806771755E-2,2.027034760E-2,5.716158328E-2
4.119719803E0,-3.759747744E-2,2.182376385E-2,5.979919434E-2,7.393098553E-2
4.124735584E0,1.568515599E-2,7.886350155E-2,1.087484360E-1,1.352468052E-1
4.129751365E0,6.538018584E-3,8.340752125E-2,1.002216339E-1,1.305524270E-1
4.134767199E0,4.497274756E-3,5.208098888E-2,2.713584900E-2,5.889829526E-2
4.139782980E0,7.304012775E-3,1.565170288E-2,-9.125614166E-2,9.287630374E-2
4.144798813E0,-4.741851985E-2,1.005017757E-2,-1.186103821E-1,1.281325284E-1
4.149814594E0,-9.308516979E-3,1.615527272E-1,-1.291122437E-1,2.070166747E-1
4.154830428E0,-7.331624627E-3,3.208720088E-1,-1.872510910E-1,3.715852121E-1
4.159846209E0,-1.936958730E-2,3.724802732E-1,-3.670244217E-1,5.232816268E-1
4.164861990E0,-2.142767608E-2,3.851937652E-1,-6.036586761E-1,7.164057365E-1
4.169877824E0,-3.995379806E-2,3.514986038E-1,-6.890277863E-1,7.745365483E-1
4.174893605E0,-2.946341038E-2,2.502882481E-1,-7.166366577E-1,7.596580802E-1
4.179909438E0,-2.831357718E-2,2.448678613E-1,-6.149082184E-1,6.624756940E-1
4.184925219E0,-3.460714221E-2,2.255435586E-1,-4.462261200E-1,5.011838997E-1
4.189941053E0,-3.829798102E-2,2.069783211E-1,-3.398504257E-1,3.997562665E-1
4.194956834E0,-4.920183122E-2,1.779055595E-1,-2.623043060E-1,3.207409504E-1
4.199972667E0,2.359138429E-2,2.029256821E-1,-2.350835800E-1,3.114477090E-1
4.204988449E0,-7.622541487E-2,2.009422779E-1,-1.433792114E-1,2.583519135E-1
4.210004230E0,-5.672191083E-2,1.125109792E-1,-1.666355133E-1,2.089102436E-1
4.215020063E0,-1.358182579E-1,2.106833458E-2,-2.233819962E-1,2.622784591E-1
4.220035844E0,-1.237385720E-1,2.908164263E-2,-2.681407928E-1,2.967430891E-1
4.225051678E0,-2.980150282E-2,4.884719849E-3,-3.726758957E-1,3.738974636E-1
4.230067459E0,4.552245140E-3,-3.878539801E-2,-3.337268829E-1,3.360039619E-1
4.235083292E0,-4.473935068E-2,-2.642583847E-2,-1.372175217E-1,1.467262168E-1
4.240099074E0,-3.194643557E-2,-2.936303616E-3,1.401166916E-1,1.437424220E-1
4.245114907E0,6.800517440E-3,3.003257513E-2,3.690319061E-1,3.703143939E-1
4.250130688E0,9.530052543E-3,1.281815767E-2,4.778671265E-1,4.781339955E-1
4.255146469E0,2.418592572E-3,-4.635691643E-3,4.692020416E-1,4.692311745E-1
4.260162303E0,-2.235412598E-3,-1.528859138E-3,3.671493530E-1,3.671593413E-1
4.265178084E0,-3.552520275E-2,-7.609978318E-2,1.646690369E-1,1.848488808E-1
4.270193917E0,-3.720879555E-2,-1.304897964E-1,2.210426331E-2,1.374797436E-1
4.275209699E0,-8.438314497E-2,-1.593999267E-1,2.067279816E-2,1.815384707E-1
4.280225532E0,-4.257977009E-2,-1.787276268E-1,1.482038498E-1,2.360529231E-1
4.285241313E0,-6.047748029E-2,-1.605238020E-1,3.898057938E-1,4.258802337E-1
4.290257146E0,-2.620749176E-2,-1.106644869E-1,6.363658905E-1,6.464479932E-1
4.295272928E0,-2.826113999E-2,-1.194491386E-1,7.002916336E-1,7.109677636E-1
4.300288761E0,-1.686300337E-2,-3.489500284E-2,6.472434998E-1,6.484027838E-1
4.305304542E0,-7.521261275E-2,1.362733990E-1,4.497566223E-1,4.759289818E-1
4.310320324E0,-1.518566310E-1,2.327145040E-1,1.090736389E-1,2.985189030E-1
4.315336157E0,-1.560683101E-1,1.735545695E-1,-2.881193161E-1,3.707981207E-1
4.320351938E0,-2.024414688E-1,1.071670949E-1,-4.564533234E-1,5.107024290E-1
4.325367771E0,-1.606442481E-1,1.359389424E-1,-3.242311478E-1,3.865382358E-1
4.330383553E0,-4.589886963E-2,1.975011975E-1,-6.964397430E-2,2.143914933E-1
4.335399386E0,4.922507703E-2,2.343017012E-1,3.087902069E-2,2.413998950E-1
4.340415167E0,8.456733823E-2,2.200700939E-1,-3.798389435E-2,2.387996171E-1
4.345430949E0,3.919024765E-2,1.292697638E-1,-1.252574921E-1,1.842172269E-1
4.350446782E0,-2.913910151E-2,1.550257802E-1,-1.643199921E-1,2.277787074E-1
4.355462563E0,6.418745220E-2,3.985688686E-1,-1.365728378E-1,4.261799058E-1
4.360478396E0,1.432947814E-2,4.258328080E-1,-1.731538773E-1,4.599143176E-1
4.365494178E0,-9.619052708E-2,7.956421375E-2,-2.711696625E-1,2.985231439E-1
4.370509959E0,-2.296149731E-2,-7.349276543E-2,-1.879568100E-1,2.031161721E-1
4.375525792E0,8.927474916E-2,1.485970914E-1,1.105899811E-1,2.056239780E-1
4.380541574E0,2.180251479E-2,3.977413177E-1,2.974309921E-1,4.971304663E-1
4.385557407E0,-3.525254130E-2,4.091143310E-1,4.587173462E-2,4.131845756E-1
4.390573188E0,3.880381584E-3,4.183640480E-1,-3.199090958E-1,5.266738683E-1
4.395589021E0,-3.752131760E-2,4.089701176E-1,-5.330610275E-1,6.729178742E-1
4.400604803E0,-9.444910288E-2,2.017570436E-1,-4.999237061E-1,5.473118394E-1
4.405620636E0,-1.129764616E-1,7.746510953E-2,-2.225542068E-1,2.613329276E-1
4.410636417E0,-4.851914942E-2,1.025035381E-1,1.593103409E-1,1.955527241E-1
4.415652199E0,-1.039691418E-1,-9.908184409E-2,3.195505142E-1,3.503417266E-1
4.420668032E0,-6.420645118E-2,-1.360094696E-1,3.193607330E-1,3.530047054E-1
4.425683813E0,-4.238002002E-2,1.276521385E-1,3.120498657E-1,3.398032567E-1
4.430699646E0,-5.429750681E-2,4.510779977E-1,1.196146011E-1,4.698161684E-1
4.435715428E0,-9.496036172E-2,6.018068194E-1,-2.468929291E-1,6.573773929E-1
4.440731261E0,-1.297878772E-1,5.114398599E-1,-6.317243576E-1,8.230985891E-1
4.445747042E0,-6.834641099E-2,2.391227782E-1,-7.902069092E-1,8.284189123E-1
4.450762876E0,3.312294185E-2,1.152211875E-1,-5.200462341E-1,5.336863657E-1
4.455778657E0,5.714741349E-2,9.208966792E-2,-6.696414948E-2,1.273991017E-1
4.460794438E0,9.933732450E-2,2.593581378E-1,2.256402969E-1,3.578380797E-1
4.465810271E0,1.858971566E-1,6.163117886E-1,2.142677307E-1,6.784604881E-1
4.470826053E0,1.066219211E-1,7.541633248E-1,-1.579446793E-1,7.778670042E-1
4.475841886E0,-1.602740586E-2,5.957529545E-1,-6.221113205E-1,8.615108563E-1
4.480857667E0,-1.557506472E-1,-9.047321230E-2,-8.142280579E-1,8.339130629E-1
4.485873501E0,-9.050771594E-2,-5.283274055E-1,-4.231214523E-1,6.829006205E-1
4.490889282E0,1.504048407E-1,5.299815536E-2,3.541078568E-1,3.883591055E-1
4.495905063E0,1.102718562E-1,7.913935184E-1,6.476449966E-1,1.028546365E0
4.500920896E0,-1.522244513E-1,7.217830420E-1,6.019973755E-2,7.401128641E-1
4.505936678E0,-2.736964226E-1,3.291037977E-1,-7.100687027E-1,8.291059063E-1
4.510952511E0,-9.125193954E-2,2.293188125E-1,-9.493989944E-1,9.809548842E-1
4.515968292E0,-5.016271770E-2,2.086293995E-1,-5.529298782E-1,5.931053657E-1
4.520984074E0,-1.554081291E-1,1.448770761E-1,9.663867950E-2,2.334097002E-1
4.525999907E0,-5.162626505E-2,2.923243940E-1,5.603628159E-1,6.341335096E-1
4.531015688E0,8.220095932E-2,3.893487155E-1,5.880804062E-1,7.100619580E-1
4.536031521E0,-1.384543926E-1,-3.287707567E-1,1.644029617E-1,3.927953196E-1
4.541047303E0,-1.034069210E-1,-4.686474204E-1,-1.837444305E-2,4.802718148E-1
4.546063136E0,1.348577738E-1,3.825663328E-1,1.208438873E-1,4.232574432E-1
4.551078917E0,3.153871000E-2,7.769404650E-1,-4.738807678E-3,7.775947741E-1
4.556094699E0,-1.942894459E-1,4.183780253E-1,-4.214677811E-1,6.248389003E-1
4.561110532E0,-7.303768396E-2,2.127482295E-1,-5.381679535E-1,5.832847149E-1
4.566126313E0,2.046721876E-1,2.168025970E-1,-3.406686783E-1,4.527131750E-1
4.571142146E0,7.835847139E-2,-4.163575172E-2,5.459022522E-2,1.041809894E-1
4.576157928E0,-7.678614557E-2,-9.172737598E-3,4.727144241E-1,4.789980982E-1
4.581173761E0,1.921166480E-1,5.902968645E-1,5.501327515E-1,8.294608122E-1
4.586189542E0,1.533367336E-1,4.855590463E-1,1.400127411E-1,5.280940342E-1
4.591205324E0,-1.835892051E-1,-1.916851997E-1,-3.571062088E-1,4.449416326E-1
4.596221157E0,-1.642780602E-1,-1.731753349E-1,-3.065395355E-1,3.885144328E-1
4.601236938E0,1.300887764E-1,4.361310005E-1,5.214118958E-2,4.580961067E-1
4.606252771E0,-1.575276256E-2,5.987913609E-1,1.513395309E-1,6.178210882E-1
4.611268553E0,-2.695802152E-1,3.723398447E-1,-1.399803162E-2,4.598982467E-1
4.616284386E0,-4.062493145E-2,2.504686713E-1,-2.518529892E-1,3.575120537E-1
4.621300167E0,8.233685791E-2,1.689378023E-1,-2.837772369E-1,3.403657730E-1
4.626315949E0,-1.479927599E-1,2.875727415E-2,-4.488372803E-2,1.573003079E-1
4.631331782E0,-1.701212525E-1,9.434837103E-2,1.919460297E-1,2.732876396E-1
4.636347563E0,7.803595066E-2,3.179827929E-1,2.462091446E-1,4.096603581E-1
4.641363396E0,1.363503337E-1,5.240952969E-1,6.232547760E-2,5.451162801E-1
4.646379178E0,-1.046520174E-1,3.774780035E-1,-2.604827881E-1,4.704178682E-1
4.651395011E0,-1.437609792E-1,2.087006569E-1,-4.789180756E-1,5.418354976E-1
4.656410792E0,2.261260152E-2,2.960668802E-1,-4.181547165E-1,5.128550421E-1
4.661426574E0,-6.942406297E-2,-2.178208828E-1,-1.704969406E-1,2.851926441E-1
4.666442407E0,9.282825887E-2,-3.298348784E-1,2.317781448E-1,4.136777020E-1
4.671458188E0,2.459118068E-1,3.476967812E-1,6.068696976E-1,7.413882237E-1
4.676474021E0,8.749161661E-2,6.911683083E-1,4.881601334E-1,8.506872099E-1
4.681489803E0,-2.495926917E-1,1.407040358E-1,-1.568670273E-1,3.266518049E-1
4.686505636E0,-8.094254136E-2,-9.555339813E-2,-4.453344345E-1,4.626066423E-1
4.691521417E0,2.769278586E-1,1.717971563E-1,-2.723655701E-1,4.247190902E-1
4.696537199E0,7.601903379E-2,2.165784836E-1,5.085659027E-2,2.350989703E-1
4.701553032E0,-3.336097300E-1,2.200889587E-2,1.702022552E-1,3.751648320E-1
4.706568813E0,-9.883409739E-2,2.494945526E-1,1.095895767E-1,2.898716715E-1
4.711584646E0,7.751826942E-2,2.005343437E-1,-8.055400848E-2,2.295910569E-1
4.716600428E0,-1.226437092E-1,-3.187540770E-1,-1.414527893E-1,3.696681384E-1
4.721616261E0,-4.035738111E-2,3.394167423E-1,2.925081253E-1,4.498815917E-1
4.726632042E0,-1.064491570E-1,6.434762478E-1,5.273342133E-1,8.387338535E-1
4.731647824E0,-2.449732125E-1,-1.104940176E-1,3.028631210E-1,4.049035352E-1
4.736663657E0,-1.821748018E-1,-6.159021854E-1,2.628221512E-1,6.939730856E-1
4.741679438E0,2.823574841E-1,-7.032048702E-2,4.594764709E-1,5.438651920E-1
4.746695271E0,2.372767776E-1,4.564691782E-1,5.841512680E-1,7.783939130E-1
4.751711053E0,-4.731933177E-1,-3.921878338E-2,4.649314880E-1,6.645384243E-1
4.756726834E0,-2.043377757E-1,-2.847499847E-1,3.865003586E-1,5.217461141E-1
4.761742667E0,4.814030826E-1,2.024798393E-1,5.065956116E-1,7.275892570E-1
4.766758449E0,3.139331341E-1,3.464493752E-1,7.032890320E-1,8.445097067E-1
4.771774282E0,-3.853694797E-1,-1.774713993E-1,6.346111298E-1,7.633721369E-1
4.776790063E0,-2.994585037E-1,-5.019207001E-1,3.483686447E-1,6.804120055E-1
4.781805896E0,3.349009752E-1,-2.425584793E-1,1.818714142E-1,4.517416191E-1
4.786821678E0,2.725184560E-1,1.934983730E-1,2.187118530E-1,3.994280960E-1
4.791837459E0,-3.357887566E-1,1.370286942E-1,3.081369400E-1,4.758984407E-1
4.796853292E0,-4.359625280E-1,-1.628756523E-1,2.634954453E-1,5.348099229E-1
4.801869074E0,1.007295996E-1,5.212354660E-2,3.599481583E-1,3.773936843E-1
4.806884907E0,3.116484880E-1,3.900237083E-1,6.597023010E-1,8.273151752E-1
4.811900688E0,-1.839023829E-1,-3.775501251E-2,7.419824600E-1,7.653649446E-1
4.816916469E0,-3.567451537E-1,-3.344526291E-1,6.905450821E-1,8.461549363E-1
4.821932303E0,-4.089874029E-2,-1.831548214E-1,5.578908920E-1,5.886090748E-1
4.826948084E0,1.572870016E-1,-2.196073532E-2,3.632841110E-1,3.964805419E-1
4.831963917E0,-1.980038881E-1,-2.347874641E-2,2.716979980E-1,3.370112660E-1
4.836979699E0,-2.965417802E-1,-1.800560951E-2,2.302894592E-1,3.758915594E-1
4.841995532E0,-2.865988016E-2,-4.822731018E-2,2.319192886E-1,2.386080858E-1
4.847011313E0,1.122008115E-1,-1.566648483E-2,4.129514694E-1,4.282095012E-1
4.852027094E0,3.489741683E-2,5.102276802E-2,6.417026520E-1,6.446731312E-1
4.857042928E0,-1.885604858E-2,7.728719711E-2,6.812877655E-1,6.859168177E-1
4.862058709E0,-1.261818409E-2,2.671027184E-2,4.958915710E-1,4.967706789E-1
4.867074542E0,5.850073695E-2,-4.386115074E-2,2.721090317E-1,2.817613563E-1
4.872090324E0,9.184212983E-2,-7.208514214E-2,1.152229309E-1,1.640352655E-1
4.877106105E0,4.154373705E-2,-6.487774849E-2,1.830635071E-1,1.986133227E-1
4.882121938E0,-6.157907844E-2,-4.103088379E-2,3.559122086E-1,3.635230619E-1
4.887137719E0,-9.167909622E-3,4.452943802E-3,4.902362823E-1,4.903422191E-1
4.892153553E0,2.390003204E-2,6.664752960E-2,5.262737274E-1,5.310151984E-1
4.897169334E0,-9.866622090E-2,-1.511025429E-2,4.544467926E-1,4.652797333E-1
4.902185115E0,-1.032549441E-1,-5.441737175E-2,3.225975037E-1,3.430626520E-1
4.907200949E0,-4.545366764E-2,-8.051872253E-3,2.743453979E-1,2.782018439E-1
4.912216730E0,-9.780657291E-2,-1.229596138E-2,3.502779007E-1,3.638844928E-1
4.917232563E0,-1.123550236E-1,-3.090906143E-2,4.068803787E-1,4.232383064E-1
4.922248344E0,-1.101225019E-1,-1.787846088E-1,3.556451797E-1,4.130065322E-1
4.927264178E0,-1.292738318E-1,-2.504644394E-1,2.754974365E-1,3.941357590E-1
4.932279959E0,-5.978116393E-2,-2.337734699E-1,2.191762924E-1,3.259786342E-1
4.937295792E0,-8.863359690E-2,-2.578341961E-1,2.560396194E-1,3.740196170E-1
4.942311574E0,-9.836235642E-2,-2.693576813E-1,3.527078629E-1,4.545674319E-1
4.947327355E0,-4.835334420E-2,-2.443118095E-1,4.756832123E-1,5.369365182E-1
4.952343188E0,-6.759977341E-2,-2.589139938E-1,6.035366058E-1,6.601989247E-1
4.957358969E0,-3.278106451E-3,-2.367146015E-1,7.290649414E-1,7.665378251E-1
4.962374803E0,3.280624747E-3,-2.208886147E-1,7.374773026E-1,7.698540864E-1
4.967390584E0,-4.774540663E-3,-2.617018223E-1,6.910781860E-1,7.389855880E-1
4.972406365E0,-1.498085260E-2,-3.307330608E-1,5.539350510E-1,6.453315614E-1
4.977422199E0,1.080609858E-2,-3.615572453E-1,4.311723709E-1,5.628054964E-1
4.982437980E0,5.351251364E-2,-2.990310192E-1,4.376144409E-1,5.327190052E-1
4.987453813E0,-3.107534349E-2,-2.124745846E-1,4.990453720E-1,5.432839123E-1
4.992469594E0,-1.393185854E-1,-1.810858250E-1,5.292005539E-1,5.764156230E-1
4.997485376E0,-8.432947099E-2,-2.023615837E-1,5.448656082E-1,5.873160999E-1
5.002501209E0,-2.950713038E-3,-1.802868843E-1,6.059598923E-1,6.322178884E-1
5.007516990E0,1.597236097E-2,-1.430225372E-1,8.178768158E-1,8.304414779E-1
5.012532824E0,-4.703167081E-2,-1.167516708E-1,9.437789917E-1,9.521353454E-1
5.017548605E0,-1.197622120E-1,-1.715333462E-1,8.854503632E-1,9.098291169E-1
5.022564386E0,-9.408743680E-2,-2.409551144E-1,6.524200439E-1,7.018288443E-1
5.027580219E0,-4.424361885E-2,-3.349542618E-1,3.690853119E-1,5.003756816E-1
5.032596001E0,-1.823969185E-2,-3.696155548E-1,2.412185669E-1,4.417405819E-1
5.037611834E0,-7.635335624E-2,-3.592195511E-1,2.710838318E-1,4.564591600E-1
5.042627615E0,-1.324443668E-1,-3.422472477E-1,3.412466049E-1,5.011226738E-1
5.047643396E0,-1.162258685E-1,-3.089435101E-1,4.134511948E-1,5.290523938E-1
5.052659230E0,-4.286728799E-2,-3.025288582E-1,4.469928741E-1,5.414461598E-1
5.057675011E0,8.763134480E-3,-2.918307781E-1,5.184507370E-1,5.950068590E-1
5.062690844E0,7.761821151E-3,-3.031229973E-1,5.153989792E-1,5.979798534E-1
5.067706626E0,-4.384353757E-2,-3.413550854E-1,4.761095047E-1,5.874740935E-1
5.072722459E0,-1.370842755E-2,-3.779337406E-1,3.766345978E-1,5.337372514E-1
5.077738240E0,-1.677943766E-2,-4.154129028E-1,3.221759796E-1,5.259722343E-1
5.082754021E0,1.393215358E-2,-4.461996555E-1,3.558921814E-1,5.709181047E-1
5.087769855E0,6.330668926E-3,-4.482340813E-1,5.376949310E-1,7.000497895E-1
5.092785636E0,-3.025856614E-2,-4.068207741E-1,7.504148483E-1,8.541318210E-1
5.097801469E0,-3.616648912E-2,-4.414842129E-1,8.290729523E-1,9.399884496E-1
5.102817251E0,-1.603755355E-2,-5.071070194E-1,7.306118011E-1,8.894989243E-1
5.107833032E0,-1.483935118E-2,-5.706405640E-1,4.932832718E-1,7.544396900E-1
5.112848865E0,-5.885650218E-2,-6.038610935E-1,2.676782608E-1,6.631470119E-1
5.117864646E0,-7.601557672E-2,-5.806081295E-1,1.708812714E-1,6.099873579E-1
5.122880480E0,-1.003422290E-1,-5.743937492E-1,2.723941803E-1,6.435800895E-1
5.127896261E0,-8.601902425E-2,-5.651972294E-1,5.388984680E-1,7.856581569E-1
5.132912042E0,-7.242462039E-2,-6.355738640E-1,9.325108528E-1,1.130829763E0
5.137927876E0,-4.012911022E-2,-6.845734119E-1,1.187879562E0,1.371608164E0
5.142943657E0,-7.030709088E-2,-7.316517830E-1,1.187888145E0,1.396902167E0
5.147959490E0,-4.072862864E-2,-8.156476021E-1,1.009100437E0,1.298161594E0
5.152975271E0,-6.332542002E-2,-9.271204472E-1,7.401256561E-1,1.188001860E0
5.157991105E0,-4.971136153E-2,-8.943641186E-1,5.960474014E-1,1.075932573E0
5.163006886E0,-8.167345822E-2,-8.678269386E-1,6.366930008E-1,1.079431390E0
5.168022667E0,-3.965361416E-2,-8.279471397E-1,7.974948883E-1,1.150246483E0
5.173038501E0,-9.782566130E-2,-8.245801926E-1,1.090452194E0,1.370616045E0
5.178054282E0,-7.010856271E-2,-8.047659397E-1,1.405593872E0,1.621190168E0
5.183070115E0,-2.802114189E-2,-8.324475288E-1,1.693013191E0,1.886808877E0
5.188085896E0,2.833890915E-2,-8.355720043E-1,1.900292873E0,2.076077232E0
5.193101678E0,2.699409425E-2,-8.953676224E-1,2.061080933E0,2.247324291E0
5.198117511E0,-3.422884643E-2,-9.473962784E-1,1.945796967E0,2.164453085E0
5.203133292E0,-1.004143953E-1,-1.001859665E0,1.700329781E0,1.976088865E0
5.208149126E0,-1.404808611E-1,-1.023815393E0,1.321973801E0,1.677959345E0
5.213164907E0,-7.028199732E-2,-1.009241343E0,1.032884598E0,1.445807124E0
5.218180688E0,-7.433424890E-2,-1.022501230E0,9.550294876E-1,1.401112297E0
5.223196521E0,-1.191550046E-1,-1.043827534E0,1.102806091E0,1.523139885E0
5.228212303E0,-1.119517833E-1,-1.039513111E0,1.282376289E0,1.654572349E0
5.233228136E0,-6.198340654E-2,-1.069554806E0,1.395558357E0,1.759367089E0
5.238243917E0,-1.728442311E-2,-1.084624290E0,1.257840157E0,1.660984787E0
5.243259699E0,-1.053951681E-2,-1.078444481E0,9.886221886E-1,1.463054138E0
5.248275532E0,-9.195619822E-2,-1.116269588E0,7.574939728E-1,1.352150456E0
5.253291313E0,-4.369828105E-2,-1.092327118E0,7.559585571E-1,1.329120541E0
5.258307146E0,-4.131817818E-2,-1.130290031E0,8.836989403E-1,1.435335001E0
5.263322928E0,-8.990228176E-2,-1.172459602E0,1.092862129E0,1.605332231E0
5.268338709E0,-1.432523131E-2,-1.204898119E0,1.110534668E0,1.638679938E0
5.273354542E0,4.663808644E-2,-1.215117693E0,9.203176498E-1,1.525014982E0
5.278370324E0,-1.128569245E-2,-1.219403267E0,6.977853775E-1,1.404982607E0
5.283386157E0,-9.754709899E-2,-1.189812422E0,5.118227005E-1,1.298896267E0
5.288401938E0,-4.743070900E-2,-1.247143507E0,4.621152878E-1,1.330852035E0
5.293417719E0,5.848261714E-2,-1.160625696E0,4.120998383E-1,1.233003852E0
5.298433553E0,-1.955929399E-2,-1.193035126E0,2.974548340E-1,1.229713282E0
5.303449334E0,-7.981745899E-2,-1.324963331E0,7.805252075E-2,1.329658171E0
5.308465167E0,-8.236883581E-2,-1.330032587E0,-1.255989075E-2,1.332639883E0
5.313480949E0,-1.057545841E-2,-1.409863234E0,1.818571091E-1,1.421582986E0
5.318496730E0,-2.268236876E-2,-1.524420261E0,5.504522324E-1,1.620916186E0
5.323512563E0,-5.176408589E-2,-1.539545298E0,9.830331802E-1,1.827356965E0
5.328528344E0,-1.170627177E-1,-1.529690027E0,1.073082447E0,1.872207573E0
5.333544178E0,-8.756607771E-2,-1.555469513E0,7.730603218E-1,1.739188168E0
5.338559959E0,7.543019950E-2,-1.660986185E0,1.731920242E-1,1.671693841E0
5.343575792E0,2.182029933E-2,-1.653537273E0,-2.184648514E-1,1.668049319E0
5.348591574E0,-1.074871272E-1,-1.674747467E0,-1.415777206E-1,1.684154628E0
5.353607355E0,-2.577000856E-1,-1.652710199E0,1.675148010E-1,1.681047752E0
5.358623188E0,-2.095910311E-1,-1.718144894E0,4.624414444E-1,1.791592131E0
5.363638969E0,-1.620613039E-2,-1.844172478E0,6.151208878E-1,1.944121517E0
5.368654751E0,-2.846228331E-2,-2.026591539E0,8.031082153E-1,2.180106918E0
5.373670584E0,-5.598567426E-3,-2.090377331E0,1.024377346E0,2.327886955E0
5.378686365E0,-6.941884756E-2,-1.970885992E0,1.024189949E0,2.222200626E0
5.383702199E0,-9.008574486E-2,-1.820462465E0,7.040343285E-1,1.953935353E0
5.388717980E0,-2.693884075E-2,-1.795109510E0,-7.751464844E-3,1.795328366E0
5.393733813E0,-7.279247791E-2,-1.853817463E0,-5.620460510E-1,1.938513269E0
5.398749594E0,-1.871687472E-1,-1.881383657E0,-6.583614349E-1,2.002018078E0
5.403765376E0,-1.059406027E-1,-1.865571737E0,-5.091276169E-1,1.936696220E0
5.408781209E0,-5.663108081E-2,-1.789866924E0,-2.563343048E-1,1.809015744E0
5.413796990E0,1.380151510E-2,-1.870422840E0,-6.447696686E-2,1.871584719E0
5.418812771E0,-1.661262661E-2,-1.946974039E0,-4.942607880E-2,1.947672156E0
5.423828605E0,-9.689129144E-2,-1.967660189E0,-1.125440598E-1,1.973256371E0
5.428844386E0,-1.477390826E-1,-2.001718760E0,-1.368141174E-1,2.011820800E0
5.433860219E0,-7.495929301E-2,-2.010944843E0,-2.245950699E-1,2.024836044E0
5.438876001E0,7.545387745E-2,-1.879499197E0,-3.137760162E-1,1.907004433E0
5.443891834E0,-7.476455718E-2,-1.836810589E0,-4.163780212E-1,1.884896160E0
5.448907615E0,-1.548181474E-1,-1.830348492E0,-6.749553680E-1,1.956964233E0
5.453923396E0,-1.224139631E-1,-1.826702833E0,-8.864641190E-1,2.034120708E0
5.458939230E0,-2.644497156E-2,-1.813900709E0,-1.008519173E0,2.075583301E0
5.463955011E0,4.326804355E-2,-1.891315699E0,-9.799509048E-1,2.130551800E0
5.468970844E0,-1.439317018E-1,-1.910452604E0,-8.088731766E-1,2.079620471E0
5.473986626E0,-1.950704753E-1,-2.029785156E0,-5.568370819E-1,2.113799377E0
5.479002407E0,-2.374052107E-1,-2.067586422E0,-2.800579071E-1,2.099930303E0
5.484018240E0,-7.931844145E-2,-2.033254147E0,-1.769208908E-1,2.042477623E0
5.489034021E0,1.026729345E-1,-2.030193329E0,-3.359222412E-1,2.060356871E0
5.494049855E0,-6.194479018E-2,-2.066087961E0,-6.015768051E-1,2.152777572E0
5.499065636E0,-1.277041435E-1,-2.145482302E0,-8.947734833E-1,2.328094122E0
5.504081417E0,-1.311830580E-1,-2.114730358E0,-9.737310410E-1,2.331833103E0
5.509097251E0,-1.012012139E-1,-2.107200623E0,-8.766956329E-1,2.284541832E0
5.514113032E0,-1.846889406E-2,-2.167463541E0,-6.872386932E-1,2.273881334E0
5.519128865E0,5.453553796E-2,-2.213562965E0,-5.702505112E-1,2.286486556E0
5.524144646E0,3.001701552E-3,-2.154555321E0,-4.371891022E-1,2.198465818E0
5.529160428E0,-1.951098889E-1,-1.981303573E0,-4.460792542E-1,2.040249597E0
5.534176261E0,-1.330541223E-1,-1.883864641E0,-7.359275818E-1,2.026879077E0
5.539192042E0,-4.006566852E-2,-1.832189918E0,-1.177796364E0,2.178469515E0
5.544207876E0,7.974021882E-2,-1.851190686E0,-1.681103706E0,2.501874324E0
5.549223657E0,6.068898365E-3,-1.804719090E0,-1.913525581E0,2.630328492E0
5.554239438E0,-1.555377841E-1,-1.785456300E0,-1.839284897E0,2.568076154E0
5.559255271E0,-1.929724216E-1,-1.737824202E0,-1.597269058E0,2.368235579E0
5.564271053E0,-1.161638796E-1,-1.666468382E0,-1.355037689E0,2.150985368E0
5.569286886E0,1.665842533E-2,-1.562656164E0,-1.392698288E0,2.093270243E0
5.574302667E0,2.165277004E-1,-1.437294960E0,-1.820396423E0,2.329494406E0
5.579318449E0,6.741573662E-2,-1.402254224E0,-2.425504684E0,2.802487246E0
5.584334282E0,-1.573691815E-1,-1.335620999E0,-2.830021858E0,3.133316491E0
5.589350063E0,-1.493275762E-1,-1.315833569E0,-2.945508003E0,3.229509886E0
5.594365896E0,-2.012195885E-1,-1.282019019E0,-2.712172508E0,3.006649598E0
5.599381678E0,-8.091610670E-2,-1.498212814E0,-2.345170975E0,2.784064646E0
5.604397459E0,8.746876568E-2,-1.614529133E0,-1.976046562E0,2.553255789E0
5.609413292E0,-4.775367305E-2,-1.580041289E0,-1.719330788E0,2.335574714E0
5.614429074E0,-3.720630705E-1,-1.468464017E0,-1.550836563E0,2.167927938E0
5.619444907E0,-4.144364595E-1,-1.445034742E0,-1.582944870E0,2.183024839E0
5.624460688E0,-1.198649406E-4,-1.347653151E0,-1.822815895E0,2.266898060E0
5.629476469E0,1.263700128E-1,-1.232759356E0,-2.244334221E0,2.563727970E0
5.634492303E0,-2.246806771E-2,-1.206331730E0,-2.639474869E0,2.902166198E0
5.639508084E0,5.915895104E-2,-1.220550776E0,-2.986772537E0,3.227081370E0
5.644523917E0,5.967888981E-2,-1.296577811E0,-3.109265327E0,3.369303558E0
5.649539699E0,-5.470979586E-2,-1.237136602E0,-2.832400322E0,3.091276713E0
5.654555480E0,-2.632503211E-2,-1.244283915E0,-2.428957939E0,2.729243877E0
5.659571313E0,1.018575877E-1,-1.009670377E0,-2.188528061E0,2.412356589E0
5.664587094E0,-8.863247931E-2,-1.043435335E0,-2.290422440E0,2.518461428E0
5.669602928E0,5.344843864E-2,-1.027956843E0,-2.619650841E0,2.814626536E0
5.674618709E0,4.973389208E-2,-9.424229860E-1,-2.903513908E0,3.053035794E0
5.679634490E0,2.915687859E-2,-8.322113752E-1,-3.027284622E0,3.139725797E0
5.684650324E0,8.534415066E-2,-7.376533747E-1,-3.065228462E0,3.153893094E0
5.689666105E0,-1.215547323E-1,-6.872155666E-1,-2.988752365E0,3.069149962E0
5.694681938E0,-1.224024296E-1,-7.548306584E-1,-2.857780457E0,2.958320607E0
5.699697719E0,-6.340024620E-2,-9.255502820E-1,-2.712992668E0,2.867227255E0
5.704713501E0,3.143116832E-2,-7.714275718E-1,-2.576006889E0,2.689219201E0
5.709729334E0,1.811823249E-2,-8.762485981E-1,-2.628584862E0,2.770847930E0
5.714745115E0,8.849599957E-2,-5.687927604E-1,-2.717648506E0,2.777943511E0
5.719760949E0,-8.270372450E-2,-3.863759041E-1,-2.986800194E0,3.012822869E0
5.724776730E0,5.447834730E-3,-3.061026335E-1,-3.414406776E0,3.428104744E0
5.729792511E0,-1.544686854E-1,-3.589028716E-1,-3.677429199E0,3.698128900E0
5.734808344E0,-1.297497749E-1,-4.074777365E-1,-3.625304222E0,3.650438852E0
5.739824126E0,2.819798887E-2,-4.703060389E-1,-3.435306549E0,3.467465066E0
5.744839959E0,1.477863044E-1,-4.584895968E-1,-3.179286957E0,3.215574452E0
5.749855740E0,7.811224461E-2,-2.506000996E-1,-3.086923599E0,3.098063789E0
5.754871521E0,-1.761283875E-1,-2.776176631E-1,-3.196299553E0,3.213164112E0
5.759887355E0,2.461512387E-2,5.494415760E-2,-3.492861748E0,3.493380591E0
5.764903136E0,4.523247480E-4,-1.390522718E-2,-3.844837189E0,3.844862360E0
5.769918969E0,7.566708326E-2,-6.818473339E-4,-4.046450615E0,4.047158083E0
5.774934751E0,-6.867241859E-2,-1.450141668E-1,-3.839544296E0,3.842895446E0
5.779950532E0,-5.075821280E-2,-1.035089195E-1,-3.370478630E0,3.372449657E0
5.784966365E0,-3.866097331E-2,-4.033683240E-2,-2.979146004E0,2.979669888E0
5.789982146E0,1.046019197E-1,-2.523279190E-2,-2.892653465E0,2.894654094E0
5.794997980E0,8.359968662E-3,-4.895102978E-2,-2.993515015E0,2.993926892E0
5.800013761E0,1.173385680E-1,7.443668693E-2,-3.226558685E0,3.229549521E0
5.805029594E0,6.591740251E-2,1.025416106E-1,-3.419467926E0,3.421640072E0
5.810045376E0,1.316335797E-1,2.261916548E-1,-3.632073402E0,3.641489704E0
5.815061157E0,6.387633085E-2,2.657982111E-1,-3.720858574E0,3.730886946E0
5.820076990E0,-1.017615199E-1,1.499595046E-1,-3.700339317E0,3.704774531E0
5.825092771E0,1.262894273E-2,9.440532327E-2,-3.577845573E0,3.579113131E0
5.830108605E0,9.863883257E-3,2.044692338E-1,-3.384606361E0,3.390791233E0
5.835124386E0,-6.715542078E-2,4.129857421E-1,-3.261810303E0,3.288536684E0
5.840140167E0,-1.954099536E-2,5.616004467E-1,-3.343242645E0,3.390139864E0
5.845156001E0,-1.930978894E-2,6.540155411E-1,-3.540070534E0,3.600028969E0
5.850171782E0,-1.044214070E-1,6.515670419E-1,-3.742078781E0,3.799815396E0
5.855187563E0,-1.411561519E-1,4.492523670E-1,-3.851201057E0,3.879884320E0
5.860203396E0,-6.992655993E-2,3.630197048E-1,-3.877096176E0,3.894681988E0
5.865219178E0,9.670090675E-2,5.887088180E-1,-3.870055199E0,3.915770215E0
5.870235011E0,4.723608494E-3,9.406748414E-1,-3.767764091E0,3.883418303E0
5.875250792E0,-3.214645386E-2,1.209189177E0,-3.962200165E0,4.142728811E0
5.880266574E0,5.655527115E-2,1.228625298E0,-4.445569992E0,4.612570994E0
5.885282407E0,-6.438043714E-2,1.014127731E0,-4.760788918E0,4.868029480E0
5.890298188E0,-5.536627769E-2,9.402088523E-1,-4.683410645E0,4.777174204E0
5.895314021E0,-1.084648371E-1,9.412578940E-1,-4.209350586E0,4.314668400E0
5.900329803E0,3.621932864E-2,1.010537624E0,-3.803071022E0,3.935206135E0
5.905345584E0,1.039082408E-1,1.178919077E0,-3.612676620E0,3.801589073E0
5.910361417E0,5.998775363E-2,1.283580184E0,-3.750193596E0,3.964231152E0
5.915377199E0,3.312170506E-2,1.219700575E0,-3.949856758E0,4.134021644E0
5.920393032E0,-6.971549988E-2,1.095511079E0,-3.955795288E0,4.105279666E0
5.925408813E0,-4.338243604E-2,1.014836907E0,-3.849747658E0,3.981498840E0
5.930424594E0,9.500795603E-2,9.186002016E-1,-3.643977165E0,3.759178424E0
5.935440428E0,1.684505343E-1,9.435960054E-1,-3.506112099E0,3.634772490E0
5.940456209E0,1.503623128E-1,9.771918058E-1,-3.421741486E0,3.561716924E0
5.945472042E0,8.469793200E-2,1.150087118E0,-3.512564659E0,3.697023749E0
5.950487824E0,4.323765635E-2,1.256168842E0,-3.649187088E0,3.859584959E0
5.955503605E0,8.545643091E-2,1.273676276E0,-3.893657684E0,4.097575408E0
5.960519438E0,1.386084259E-1,1.372956991E0,-3.906369209E0,4.142939004E0
5.965535219E0,-2.611276507E-2,1.482278824E0,-3.704444885E0,3.990080738E0
5.970551053E0,1.507589221E-2,1.666500807E0,-3.467570305E0,3.847271246E0
5.975566834E0,3.482764959E-2,1.660247326E0,-3.379956245E0,3.765864890E0
5.980582615E0,1.192444265E-1,1.523211598E0,-3.513087273E0,3.830949620E0
5.985598449E0,1.195591688E-2,1.353142977E0,-3.708781242E0,3.947935810E0
5.990614230E0,7.765567303E-2,1.715898514E0,-3.761045456E0,4.134706886E0
5.995630063E0,8.862167597E-3,1.966572762E0,-3.770210266E0,4.252290255E0
6.000645844E0,1.191385984E-1,2.280172348E0,-4.056066513E0,4.654573611E0
6.005661678E0,1.371890604E-1,2.419021368E0,-4.397888184E0,5.021145855E0
6.010677459E0,-6.894406676E-2,2.403947592E0,-4.878941536E0,5.439465766E0
6.015693240E0,-4.450735450E-2,2.470058441E0,-4.968319893E0,5.548636965E0
6.020709074E0,7.139948010E-2,2.651342869E0,-4.714462280E0,5.409331889E0
6.025724855E0,1.562081873E-1,2.700157166E0,-4.428988457E0,5.189526806E0
6.030740636E0,5.925676227E-2,2.660665274E0,-4.131346703E0,4.914333794E0
6.035756469E0,6.799975038E-2,2.767649412E0,-3.934015274E0,4.810507604E0
6.040772251E0,4.109519720E-2,2.743955612E0,-3.891983032E0,4.762196252E0
6.045788084E0,7.197421789E-2,2.755288124E0,-3.852196693E0,4.736687904E0
6.050803865E0,8.607512712E-2,2.546619892E0,-3.822125435E0,4.593617816E0
6.055819699E0,9.305360913E-2,2.687153339E0,-3.710842133E0,4.582554023E0
6.060835480E0,6.402128935E-2,2.846581221E0,-3.477837563E0,4.494716619E0
6.065851261E0,5.626091361E-2,3.050875902E0,-3.364664078E0,4.542243214E0
6.070867094E0,1.919022501E-1,3.094420195E0,-3.383141518E0,4.588889772E0
6.075882876E0,1.845859289E-1,3.118073940E0,-3.506626129E0,4.696049816E0
6.080898657E0,6.199973822E-2,3.188938618E0,-3.582032204E0,4.796261897E0
6.085914490E0,1.004321873E-1,3.292886257E0,-3.521010399E0,4.821898045E0
6.090930271E0,1.912954450E-1,3.439636230E0,-3.378816605E0,4.825359364E0
6.095946105E0,1.860277951E-1,3.418574572E0,-3.382664680E0,4.812865964E0
6.100961886E0,9.748962522E-2,3.590749979E0,-3.262068748E0,4.852224455E0
6.105977667E0,8.812913299E-2,3.670860052E0,-3.284793854E0,4.926748515E0
6.110993501E0,1.907062232E-1,3.847663879E0,-3.307107925E0,5.077189087E0
6.116009282E0,2.773599029E-1,3.945909023E0,-3.410038948E0,5.222594390E0
6.121025115E0,1.370748878E-1,3.988810062E0,-3.509494781E0,5.314691794E0
6.126040896E0,7.290372252E-2,4.246477604E0,-3.485872269E0,5.494469262E0
6.131056678E0,1.558029205E-1,4.412547588E0,-3.293822289E0,5.508549359E0
6.136072511E0,1.987498850E-1,4.513940811E0,-3.110691071E0,5.485577645E0
6.141088292E0,1.572471410E-1,4.493840694E0,-2.939074516E0,5.371916777E0
6.146104126E0,1.422259957E-1,4.608757019E0,-2.554368973E0,5.271211468E0
6.151119907E0,2.874116302E-1,4.683791637E0,-2.372821808E0,5.258402122E0
6.156135688E0,3.126896024E-1,4.752107143E0,-2.396431923E0,5.331339705E0
6.161151521E0,1.873295754E-1,4.824377060E0,-2.547917366E0,5.459083191E0
6.166167303E0,5.044227839E-2,4.909505367E0,-2.685783386E0,5.596357724E0
6.171183136E0,1.729092300E-1,5.062664509E0,-2.621219635E0,5.703618317E0
6.176198917E0,2.381978035E-1,5.014306068E0,-2.404996872E0,5.566328547E0
6.181214699E0,1.858146638E-1,4.985339642E0,-2.161927223E0,5.437101043E0
6.186230532E0,2.315049022E-1,5.099970341E0,-1.877658844E0,5.439567513E0
6.191246313E0,1.885029227E-1,5.238505363E0,-1.569010735E0,5.471678580E0
6.196262146E0,3.322340548E-1,5.384118080E0,-1.436853409E0,5.582441642E0
6.201277928E0,1.005479246E-1,5.217044353E0,-1.328198433E0,5.384400872E0
6.206293761E0,7.501384616E-2,5.065531731E0,-1.200087547E0,5.206289361E0
6.211309542E0,3.381639719E-1,5.185806274E0,-9.259862900E-1,5.278673337E0
6.216325324E0,3.403773606E-1,5.307449341E0,-6.137180328E-1,5.353645961E0
6.221341157E0,1.220747977E-1,5.289062500E0,-4.736442566E-1,5.311630942E0
6.226356938E0,2.916406393E-1,5.252081394E0,-6.511650085E-1,5.300323490E0
6.231372719E0,2.554220259E-1,5.336834908E0,-8.395709991E-1,5.408505034E0
6.236388553E0,2.028157860E-1,5.394454479E0,-8.330755234E-1,5.462168818E0
6.241404334E0,2.077805400E-1,5.434667587E0,-6.033134460E-1,5.471998872E0
6.246420167E0,1.871514022E-1,5.348556519E0,-2.561655045E-1,5.357957003E0
6.251435949E0,1.854207814E-1,5.268562317E0,1.481571198E-1,5.273905601E0
6.256451782E0,2.915906310E-1,5.172627449E0,7.237253189E-1,5.231145014E0
6.261467563E0,2.670646310E-1,5.117879868E0,1.166751862E0,5.255980190E0
6.266483344E0,2.733771801E-1,5.182603836E0,1.453688622E0,5.389557330E0
6.271499178E0,1.867422462E-1,5.062574387E0,1.551384926E0,5.298238129E0
6.276514959E0,1.827754080E-1,4.953258514E0,1.367071152E0,5.141698192E0
6.281530740E0,3.157269657E-1,5.142378330E0,1.250677109E0,5.301691394E0
6.286546574E0,3.484041095E-1,5.249420166E0,1.202054977E0,5.396548311E0
6.291562355E0,2.636885941E-1,5.247480392E0,1.104119301E0,5.368860361E0
6.296578188E0,1.598992348E-1,5.160158157E0,1.081336021E0,5.274664687E0
6.301593969E0,6.957326829E-2,4.906798840E0,1.231420517E0,5.059437892E0
6.306609751E0,1.249332577E-1,4.641297340E0,1.556304932E0,4.896869853E0
6.311625584E0,2.229043543E-1,4.508697510E0,2.275277138E0,5.055187992E0
6.316641365E0,3.513631821E-1,4.506913185E0,2.890351772E0,5.365617943E0
6.321657199E0,3.298887610E-1,4.447177887E0,3.131379604E0,5.449014221E0
6.326672980E0,2.134976387E-1,4.261682034E0,3.111423016E0,5.280953340E0
6.331688761E0,1.472792923E-1,4.061937332E0,2.943408966E0,5.018434260E0
6.336704594E0,1.629297584E-1,3.983689785E0,2.864317417E0,4.909240743E0
6.341720376E0,1.786716729E-1,3.788551807E0,2.990942001E0,4.830194864E0
6.346736209E0,3.347976506E-1,3.682824850E0,3.248744488E0,4.922360114E0
6.351751990E0,1.151143014E-2,3.663477182E0,3.556341648E0,5.105757877E0
6.356767771E0,1.962082535E-1,3.567131758E0,3.552684784E0,5.038302872E0
6.361783605E0,1.771622002E-1,3.312166214E0,3.439033031E0,4.777947223E0
6.366799386E0,1.626651287E-1,3.195417643E0,3.409095764E0,4.675370337E0
6.371815219E0,1.143961623E-1,3.036603451E0,3.455647469E0,4.601689519E0
6.376831001E0,3.090565503E-1,2.860219955E0,3.544909000E0,4.565386508E0
6.381846782E0,2.064641565E-1,2.569603920E0,3.781755447E0,4.576807404E0
6.386862615E0,9.152583778E-2,2.182855129E0,4.211206913E0,4.744206694E0
6.391878396E0,1.229896843E-1,1.970183730E0,4.495866299E0,4.910149098E0
6.396894230E0,3.044396639E-1,1.805488110E0,4.752962589E0,5.093439329E0
6.401910011E0,3.749269247E-1,1.730868697E0,4.896552563E0,5.206986042E0
6.406925844E0,2.962926030E-1,1.757754922E0,4.876582146E0,5.192161890E0
6.411941626E0,1.479605436E-1,1.838697195E0,4.592956066E0,4.949539890E0
6.416957407E0,8.946092427E-2,1.656162143E0,4.046027184E0,4.372780839E0
6.421973240E0,2.141773850E-1,1.251362205E0,3.699815750E0,3.911574607E0
6.426989021E0,1.164518744E-1,7.935321927E-1,3.809685707E0,3.893194006E0
6.432004803E0,1.002012491E-1,4.044757485E-1,4.350949764E0,4.370858585E0
6.437020636E0,2.294502705E-1,1.359538436E-1,4.926066399E0,4.933280961E0
6.442036417E0,2.279083133E-1,-1.019880027E-1,5.417844296E0,5.423594801E0
6.447052251E0,1.531264782E-1,-2.007701844E-1,5.589740753E0,5.595440829E0
6.452068032E0,8.793343604E-2,-1.438890547E-1,5.236501217E0,5.239215718E0
6.457083865E0,1.413166821E-1,-3.984394073E-1,4.545176983E0,4.564795524E0
6.462099646E0,9.809590876E-2,-7.168893814E-1,4.054104805E0,4.118169370E0
6.467115428E0,1.084080338E-2,-1.024952888E0,4.267578125E0,4.388948507E0
6.472131261E0,-7.294273376E-2,-1.196780324E0,4.986351013E0,5.128479328E0
6.477147042E0,1.980003119E-1,-1.587624788E0,5.817942142E0,6.033921392E0
6.482162876E0,1.905534565E-1,-1.571582437E0,6.592641354E0,6.780051769E0
6.487178657E0,2.674632072E-1,-1.559170842E0,6.715167522E0,6.898987254E0
6.492194438E0,2.581976950E-1,-2.097209215E0,5.581310272E0,5.967912273E0
6.497210271E0,-7.320618629E-2,-2.849076986E0,4.292475224E0,5.152469540E0
6.502226053E0,-3.715952337E-1,-2.994772911E0,3.929645538E0,4.954680803E0
6.507241886E0,-1.918630898E-1,-2.945354939E0,4.054211140E0,5.014833509E0
6.512257667E0,1.400008798E-3,-3.115244627E0,4.393262386E0,5.385675950E0
6.517273449E0,2.173814178E-2,-3.330904484E0,4.786571980E0,5.831523690E0
6.522289282E0,4.111701250E-2,-3.439053059E0,5.126628876E0,6.173418840E0
6.527305063E0,1.155383289E-1,-3.523402691E0,5.272538662E0,6.342505780E0
6.532320896E0,-2.610625327E-2,-3.558380127E0,5.085872650E0,6.207161290E0
6.537336678E0,-2.419848442E-1,-3.657224655E0,4.844356060E0,6.074671553E0
6.542352459E0,-8.193081617E-2,-3.708367825E0,4.375792503E0,5.736398227E0
6.547368292E0,-4.830521345E-2,-3.822002411E0,4.051104069E0,5.569692990E0
6.552384074E0,-2.140893340E-1,-4.110033989E0,3.891785145E0,5.664292122E0
6.557399907E0,-4.939632118E-2,-4.182066917E0,3.871437550E0,5.699136110E0
6.562415688E0,-7.975965738E-2,-4.310659885E0,3.903962135E0,5.816276352E0
6.567431469E0,-1.631756574E-1,-4.417309761E0,3.754906178E0,5.799876914E0
6.572447303E0,-2.513405681E-1,-4.564963818E0,3.539142132E0,5.781660122E0
6.577463084E0,-1.151693761E-1,-4.579339504E0,3.213685989E0,5.595658310E0
6.582478917E0,5.186927319E-2,-4.678176880E0,3.032153606E0,5.575121957E0
6.587494699E0,-6.648793817E-3,-4.782436371E0,2.927457809E0,5.607294452E0
6.592510480E0,2.775490284E-2,-4.794255257E0,2.808620453E0,5.556437946E0
6.597526313E0,-1.820884645E-1,-4.838468075E0,2.713840485E0,5.550572916E0
6.602542094E0,-1.335668862E-1,-4.898687363E0,2.492362976E0,5.497895160E0
6.607557928E0,7.304303348E-2,-4.987018585E0,2.194516182E0,5.448999076E0
6.612573709E0,-9.746879339E-3,-5.122873306E0,2.047475815E0,5.516890712E0
6.617589542E0,-7.776384056E-2,-5.162051201E0,1.979504585E0,5.529128161E0
6.622605324E0,-6.446799636E-2,-5.098971367E0,2.060119629E0,5.499796179E0
6.627621105E0,-2.575674951E-1,-5.318040848E0,2.066991329E0,5.711422995E0
6.632636938E0,-2.123470902E-1,-5.476869583E0,1.887900352E0,5.797012977E0
6.637652719E0,2.707077563E-2,-5.608516216E0,1.752777100E0,5.876088370E0
6.642668553E0,-1.271605343E-1,-5.614082336E0,1.359914303E0,5.777841915E0
6.647684334E0,-2.551905215E-1,-5.626916885E0,1.061340332E0,5.731819880E0
6.652700115E0,-1.194665581E-1,-5.659328461E0,7.492408752E-1,5.709959087E0
6.657715949E0,-3.293333650E-1,-5.651968002E0,4.498434067E-1,5.679398019E0
6.662731730E0,-1.939306557E-1,-5.714108467E0,3.976812363E-1,5.731212353E0
6.667747563E0,-2.172635645E-1,-5.755025864E0,2.720069885E-1,5.765545416E0
6.672763344E0,-5.892533809E-2,-5.735968590E0,2.141571045E-1,5.740267513E0
6.677779126E0,-1.420078874E-1,-5.743183136E0,1.714267731E-1,5.747495621E0
6.682794959E0,-3.094580472E-1,-5.726400375E0,6.731510162E-2,5.735150989E0
6.687810740E0,-2.426940799E-1,-5.723801613E0,-9.805774689E-2,5.729783647E0
6.692826574E0,-1.112409830E-1,-5.649789810E0,-3.367261887E-1,5.660908406E0
6.697842355E0,-2.287006378E-1,-5.619946480E0,-5.962085724E-1,5.656108828E0
6.702858136E0,-2.212556601E-1,-5.684514046E0,-8.812866211E-1,5.756676134E0
6.707873969E0,-5.811993778E-2,-5.768918991E0,-1.155951500E0,5.883878663E0
6.712889751E0,-9.635727108E-2,-5.621991634E0,-1.173899651E0,5.744050405E0
6.717905584E0,-1.957322061E-1,-5.483130455E0,-1.274983406E0,5.632815758E0
6.722921365E0,1.265382469E-1,-5.515637398E0,-1.703228951E0,5.774015647E0
6.727937146E0,1.832089573E-1,-5.379218102E0,-2.272299767E0,5.842336787E0
6.732952980E0,-1.801343709E-1,-5.159973621E0,-2.637641907E0,5.797838476E0
6.737968761E0,-4.291302860E-1,-5.192457199E0,-2.950051308E0,5.987367308E0
6.742984594E0,-2.545773089E-1,-5.160065651E0,-2.893759727E0,5.921565037E0
6.748000376E0,-2.219651267E-2,-5.275053978E0,-2.846821785E0,5.994254035E0
6.753016209E0,5.943998322E-2,-5.256403923E0,-2.682155609E0,5.901463719E0
6.758031990E0,-2.755479328E-2,-5.137288094E0,-2.677131653E0,5.793058097E0
6.763047771E0,4.048027098E-2,-4.958423138E0,-2.819579124E0,5.704176111E0
6.768063605E0,-1.185542643E-1,-4.936020851E0,-3.210038185E0,5.889202162E0
6.773079386E0,-2.864910960E-1,-4.888297081E0,-3.458488464E0,5.994886818E0
6.778095219E0,-1.730628014E-1,-5.098084450E0,-3.729554176E0,6.319018131E0
6.783111001E0,1.550621390E-1,-4.977489471E0,-3.551638603E0,6.116664326E0
6.788126782E0,-1.158517748E-1,-4.802842140E0,-3.073140144E0,5.703060985E0
6.793142615E0,-8.406032622E-2,-4.485110760E0,-2.865777969E0,5.323153956E0
6.798158396E0,-1.150114611E-1,-4.300870895E0,-3.197506905E0,5.360482115E0
6.803174230E0,-1.048349962E-1,-4.167891502E0,-3.752560616E0,5.609279911E0
6.808190011E0,-4.557182640E-2,-4.191293716E0,-4.353754997E0,6.043525658E0
6.813205844E0,-7.987014949E-2,-4.119403839E0,-4.541901588E0,6.132270156E0
6.818221626E0,-1.425067335E-1,-4.041837215E0,-4.300466537E0,5.903453962E0
6.823237407E0,-5.827366561E-2,-3.819132328E0,-3.947923660E0,5.493202052E0
6.828253240E0,1.054562628E-2,-3.614254713E0,-3.821734428E0,5.260095283E0
6.833269021E0,1.678457260E-1,-3.488426924E0,-4.067967415E0,5.361497317E0
6.838284855E0,3.362412751E-2,-3.333580494E0,-4.571985245E0,5.658351224E0
6.843300636E0,-2.173547894E-1,-3.289127350E0,-4.960686684E0,5.956006565E0
6.848316417E0,-3.961373866E-2,-3.168183088E0,-5.289204597E0,6.165601236E0
6.853332251E0,3.214570880E-2,-2.890267611E0,-5.361773491E0,6.091247424E0
6.858348032E0,-6.102046371E-2,-2.726227283E0,-5.386860847E0,6.037740346E0
6.863363865E0,-4.613377154E-2,-2.595019817E0,-5.560699463E0,6.136581678E0
6.868379646E0,-3.350397944E-2,-2.484702110E0,-5.751621246E0,6.265461999E0
6.873395428E0,-7.131160796E-2,-2.297477722E0,-5.861640930E0,6.296215024E0
6.878411261E0,8.512191474E-2,-1.964634180E0,-5.993760109E0,6.308105377E0
6.883427042E0,-1.415032446E-1,-2.084297180E0,-6.191030502E0,6.534001575E0
6.888442876E0,-1.038603485E-2,-1.962012291E0,-6.223707199E0,6.525651799E0
6.893458657E0,-4.904261231E-2,-1.936825991E0,-6.166031837E0,6.463253725E0
6.898474490E0,6.068253517E-2,-1.709342480E0,-6.051569939E0,6.288643161E0
6.903490271E0,-2.166108787E-2,-1.423643589E0,-5.990483284E0,6.157363092E0
6.908506053E0,-4.120528698E-2,-9.613305330E-1,-6.099985123E0,6.175408712E0
6.913521886E0,-8.866420388E-2,-7.153633833E-1,-6.504245758E0,6.544067465E0
6.918537667E0,-4.865556955E-2,-6.000367999E-1,-6.944683075E0,6.970726973E0
6.923553501E0,-2.804987431E-1,-7.624454498E-1,-6.935746193E0,6.983163886E0
6.928569282E0,-1.293969005E-1,-8.101127148E-1,-6.547163963E0,6.598362079E0
6.933585063E0,5.622270703E-2,-6.130331159E-1,-6.032885551E0,6.064212947E0
6.938600896E0,2.078327239E-1,-2.892973721E-1,-5.768567085E0,5.779554795E0
6.943616678E0,1.678941548E-1,3.164309263E-2,-6.067321777E0,6.069726788E0
6.948632511E0,-7.466684282E-2,-5.063742399E-3,-6.679790497E0,6.680209717E0
6.953648292E0,2.825409174E-2,7.313966751E-3,-7.194273949E0,7.194333147E0
6.958664126E0,1.150006056E-1,1.172708273E-1,-7.233056068E0,7.234920710E0
6.963679907E0,7.190296054E-2,6.774094701E-2,-6.885203362E0,6.885912009E0
6.968695688E0,1.536312699E-1,3.094463646E-1,-6.411814690E0,6.421115731E0
6.973711521E0,5.441081524E-2,4.358372688E-1,-6.195738792E0,6.211287616E0
6.978727303E0,2.813042700E-1,7.162470222E-1,-6.265311241E0,6.312389947E0
6.983743136E0,2.402351201E-1,9.462634325E-1,-6.562816620E0,6.635034995E0
6.988758917E0,-5.175086856E-2,9.564055800E-1,-6.784313202E0,6.851590721E0
6.993774699E0,3.829962015E-2,1.246582627E0,-6.740947723E0,6.855349102E0
6.998790532E0,1.111117005E-1,1.255679011E0,-6.619688988E0,6.738646591E0
7.003806313E0,2.425136864E-1,1.462736726E0,-6.344125748E0,6.515085811E0
7.008822146E0,-7.670390606E-2,1.365952373E0,-6.082003593E0,6.233977629E0
7.013837928E0,2.081434727E-1,1.739851952E0,-5.957595825E0,6.209940139E0
7.018853761E0,1.893579960E-3,1.765298009E0,-6.085554123E0,6.336422463E0
7.023869542E0,1.172095239E-1,1.981765032E0,-6.262161255E0,6.569306987E0
7.028885324E0,-1.308754086E-2,2.094371796E0,-6.480117798E0,6.810175561E0
7.033901157E0,1.539221406E-1,2.280100107E0,-6.634134293E0,7.016714782E0
7.038916938E0,7.211387157E-2,2.471921921E0,-6.537783623E0,6.989865027E0
7.043932771E0,1.408192515E-2,2.638885021E0,-6.370716095E0,6.895646164E0
7.048948553E0,1.792130172E-1,2.789834023E0,-6.424565315E0,7.006449220E0
7.053964334E0,1.246722639E-1,2.883820057E0,-6.440728188E0,7.057970025E0
7.058980167E0,3.160366416E-2,2.917862892E0,-6.533895493E0,7.155886595E0
7.063995949E0,2.054144740E-1,3.171515465E0,-6.593802452E0,7.319763400E0
7.069011782E0,9.912508726E-2,3.400346756E0,-6.622809410E0,7.445387050E0
7.074027563E0,4.621163011E-2,3.549385548E0,-6.541939735E0,7.442932808E0
7.079043396E0,1.149504781E-1,3.558729172E0,-6.590356827E0,7.490698902E0
7.084059178E0,2.876982093E-1,3.780246258E0,-6.452175140E0,7.483555042E0
7.089074959E0,3.907230496E-2,3.819367170E0,-6.357213020E0,7.416417573E0
7.094090792E0,1.398723722E-1,4.030629158E0,-6.190667152E0,7.388497512E0
7.099106574E0,2.388040423E-1,4.220469475E0,-5.962187767E0,7.308698443E0
7.104122407E0,1.492875516E-1,4.276552200E0,-5.870279312E0,7.264390181E0
7.109138188E0,1.003937423E-1,4.318551064E0,-5.809537888E0,7.239522958E0
7.114153969E0,1.050269604E-1,4.433179855E0,-5.593494415E0,7.138017517E0
7.119169803E0,1.768476069E-1,4.541930199E0,-5.401797295E0,7.059732220E0
7.124185584E0,3.016091287E-1,4.695270061E0,-5.232069016E0,7.036410676E0
7.129201417E0,1.748120189E-1,4.723428726E0,-5.105827332E0,6.957787789E0
7.134217199E0,2.352161407E-1,4.765060425E0,-5.039664268E0,6.939693323E0
7.139233032E0,1.309816539E-1,4.798462868E0,-5.035840034E0,6.957160839E0
7.144248813E0,1.651915014E-1,4.855046272E0,-4.936560631E0,6.925921845E0
7.149264594E0,3.408164680E-1,5.058854103E0,-4.873344421E0,7.032613067E0
7.154280428E0,1.939179003E-1,5.198947906E0,-4.757551193E0,7.049890555E0
7.159296209E0,5.929079652E-2,5.234488487E0,-4.727838516E0,7.053782117E0
7.164312042E0,2.473829985E-1,5.380946159E0,-4.626315117E0,7.100603600E0
7.169327824E0,3.063898385E-1,5.442677498E0,-4.424517632E0,7.020895196E0
7.174343657E0,2.265301049E-1,5.570923805E0,-4.170550346E0,6.962757939E0
7.179359438E0,2.381128073E-1,5.738944530E0,-3.988676071E0,6.992976393E0
7.184375219E0,2.082468867E-1,5.793571472E0,-3.914670944E0,6.995247370E0
7.189391053E0,2.071540058E-1,5.789721966E0,-3.850250244E0,6.956164185E0
7.194406834E0,2.142962813E-1,5.870932579E0,-3.718843460E0,6.952953971E0
7.199422667E0,3.000140190E-1,6.006117821E0,-3.589938164E0,7.003650170E0
7.204438449E0,3.479103446E-1,6.369472504E0,-3.260147095E0,7.163782567E0
7.209454230E0,1.019017547E-1,6.343990326E0,-2.978449821E0,7.009119814E0
7.214470063E0,1.956018656E-1,6.353067875E0,-2.909658432E0,6.990410839E0
7.219485844E0,1.761011630E-1,6.405952454E0,-2.761684418E0,6.978118606E0
7.224501678E0,3.011269271E-1,6.523679733E0,-2.653961182E0,7.049296748E0
7.229517459E0,3.317013681E-1,6.656951904E0,-2.891997337E0,7.265582086E0
7.234533292E0,3.127720952E-1,6.890766144E0,-2.996655464E0,7.520666753E0
7.239549074E0,8.173279464E-2,6.784984589E0,-3.030209541E0,7.431343484E0
7.244564855E0,7.278619707E-2,6.875197411E0,-3.030824661E0,7.513956041E0
7.249580688E0,2.794953883E-1,7.008772850E0,-2.759622574E0,7.537674130E0
7.254596469E0,4.124552011E-1,7.123972893E0,-2.398827553E0,7.528312075E0
7.259612303E0,1.777534485E-1,7.222565651E0,-2.230481148E0,7.561223249E0
7.264628084E0,1.861368120E-1,7.141833305E0,-2.005548477E0,7.420421455E0
7.269643865E0,1.611464471E-1,7.076162338E0,-1.784082413E0,7.299382965E0
7.274659699E0,1.788755208E-1,7.088476658E0,-1.492265701E0,7.246057873E0
7.279675480E0,3.374977708E-1,7.237968445E0,-1.156301498E0,7.337514914E0
7.284691313E0,4.098019600E-1,7.287284851E0,-1.060626030E0,7.375458340E0
7.289707094E0,1.815451533E-1,7.155281067E0,-8.869428635E-1,7.212327879E0
7.294722928E0,9.435198456E-2,6.997708321E0,-7.765102386E-1,7.041291940E0
7.299738709E0,3.279645145E-1,7.073603630E0,-4.019727707E-1,7.092602565E0
7.304754490E0,2.954286337E-1,7.060124397E0,4.969692230E-2,7.066477508E0
7.309770324E0,2.838765681E-1,7.074307919E0,2.819633484E-1,7.085613718E0
7.314786105E0,4.136883616E-1,7.070050240E0,3.287677765E-1,7.089769862E0
7.319801938E0,2.151036561E-1,6.996489048E0,2.742099762E-1,7.005163788E0
7.324817719E0,2.064995170E-1,6.957955360E0,2.406368256E-1,6.965177021E0
7.329833553E0,2.553590834E-1,6.920815468E0,3.403415680E-1,6.933882562E0
7.334849334E0,3.862075508E-1,6.893196106E0,6.922912598E-1,6.938629261E0
7.339865115E0,2.000183165E-1,6.710772038E0,1.183465004E0,6.817261773E0
7.344880949E0,2.561879456E-1,6.487576485E0,1.832280159E0,6.746223498E0
7.349896730E0,2.756960988E-1,6.264332294E0,2.279803753E0,6.671984157E0
7.354912563E0,2.589756250E-1,6.134953499E0,2.621680737E0,6.676670779E0
7.359928344E0,3.224103749E-1,6.117373466E0,2.786581039E0,6.729876705E0
7.364944178E0,3.528254330E-1,6.019216537E0,2.815571308E0,6.654539451E0
7.369959959E0,2.620680630E-1,5.859841824E0,2.792373657E0,6.496443374E0
7.374975740E0,1.279706806E-1,5.542006493E0,2.910442829E0,6.261061405E0
7.379991574E0,1.277132928E-1,5.310198784E0,3.253108501E0,6.228742789E0
7.385007355E0,2.638551891E-1,5.095347404E0,3.669282913E0,6.284570139E0
7.390023188E0,2.729685307E-1,4.861887932E0,4.065483093E0,6.343549390E0
7.395038969E0,3.977926075E-1,4.684442520E0,4.439187050E0,6.465958734E0
7.400054751E0,2.834253311E-1,4.421959400E0,4.721014023E0,6.474722253E0
7.405070584E0,1.228282005E-1,4.240976334E0,4.674520016E0,6.312852319E0
7.410086365E0,2.639951110E-1,3.976406097E0,4.584579945E0,6.074526495E0
7.415102199E0,2.548694015E-1,3.792860508E0,4.692763805E0,6.039269937E0
7.420117980E0,3.438580036E-1,3.664888620E0,4.934014797E0,6.155822361E0
7.425133813E0,1.596982777E-1,3.384783745E0,5.224359035E0,6.227053225E0
7.430149594E0,1.328433454E-1,2.995790005E0,5.365228653E0,6.146387850E0
7.435165376E0,2.764631510E-1,2.710642338E0,5.512206078E0,6.148855959E0
7.440181209E0,1.472840607E-1,2.254548788E0,5.705842495E0,6.136882059E0
7.445196990E0,3.622564673E-1,2.004035711E0,5.926807404E0,6.266931855E0
7.450212824E0,1.530940235E-1,1.681839824E0,6.184583664E0,6.411013810E0
7.455228605E0,7.533837855E-2,1.288253427E0,6.299767971E0,6.430579231E0
7.460244438E0,1.938759983E-1,1.000054479E0,6.306036472E0,6.387784659E0
7.465260219E0,3.265487850E-1,8.909180164E-1,6.325490475E0,6.396264438E0
7.470276001E0,1.385462284E-1,6.186413169E-1,6.343752861E0,6.375351951E0
7.475291834E0,5.825918913E-2,1.862229407E-1,6.298616886E0,6.301638501E0
7.480307615E0,1.679283381E-1,-6.132833958E-1,6.221200466E0,6.253611092E0
7.485323449E0,3.406178951E-2,-1.378965259E0,6.372177124E0,6.519765846E0
7.490339230E0,9.911268950E-3,-1.953070998E0,6.775213718E0,7.051106685E0
7.495355063E0,2.169802636E-1,-2.466916084E0,7.164719582E0,7.580630718E0
7.500370844E0,2.783567309E-1,-2.627808809E0,7.213250637E0,7.682047016E0
7.505386626E0,7.837781310E-2,-2.629820347E0,6.923701286E0,7.406735964E0
7.510402459E0,3.869726360E-1,-2.476886988E0,6.167373657E0,6.657418028E0
7.515418240E0,1.364050061E-1,-2.546348572E0,5.269945621E0,5.854470448E0
7.520434074E0,-3.347108960E-1,-2.732909203E0,4.293574810E0,5.100549847E0
7.525449855E0,9.944158047E-2,-2.701334476E0,4.017862797E0,4.842552843E0
7.530465636E0,1.522848606E-1,-2.254971027E0,4.327208996E0,4.881887207E0
7.535481469E0,-5.837538242E-1,-2.489358425E0,4.756954670E0,5.400582527E0
7.540497251E0,-3.128245473E-3,-2.570128441E0,4.558367729E0,5.232999746E0
7.545513084E0,2.751839459E-1,-2.694633961E0,4.411375523E0,5.176583080E0
7.550528865E0,-1.050336063E-1,-3.059406757E0,4.559981823E0,5.492215945E0
7.555544699E0,-1.833425313E-1,-3.293180466E0,4.824547291E0,5.844220104E0
7.560560480E0,-7.805061340E-2,-3.294623613E0,5.119040012E0,6.088120178E0
7.565576261E0,3.603621572E-2,-3.230618477E0,5.517733574E0,6.394026755E0
7.570592094E0,-8.011546731E-2,-3.175905228E0,5.661843300E0,6.492246303E0
7.575607876E0,-1.922091395E-1,-3.304409981E0,5.657077789E0,6.554280951E0
7.580623709E0,-1.172224879E-1,-3.436870813E0,5.587334633E0,6.560802573E0
7.585639490E0,-5.434325337E-2,-3.622522831E0,5.682508469E0,6.739178536E0
7.590655324E0,-5.882497132E-2,-3.879035950E0,6.091013432E0,7.221552804E0
7.595671105E0,-8.518141508E-2,-4.178739071E0,6.571343422E0,7.787918237E0
7.600686886E0,9.496124834E-2,-4.465551376E0,6.889429092E0,8.210627257E0
7.605702719E0,-1.798276305E-1,-5.284748554E0,6.938572407E0,8.723800336E0
7.610718501E0,2.113177776E-1,-6.115783691E0,6.453534126E0,8.893568917E0
7.615734334E0,1.159448177E-1,-6.473852634E0,5.169113636E0,8.285164266E0
7.620750115E0,2.524269223E-1,-6.356174469E0,3.879324436E0,7.450760452E0
7.625765949E0,-4.350315332E-1,-6.228147507E0,2.447208881E0,6.705811294E0
7.630781730E0,-1.844720989E-1,-6.197383881E0,1.468266487E0,6.371609169E0
7.635797511E0,-2.106878310E-1,-6.339671135E0,1.044889450E0,6.428655647E0
7.640813344E0,-2.669782341E-1,-6.368471146E0,1.368112087E0,6.519235599E0
7.645829126E0,-1.490021646E-1,-6.241603851E0,2.100254059E0,6.587175980E0
7.650844959E0,-2.986447513E-2,-6.322570801E0,2.403988838E0,6.764240959E0
7.655860740E0,-2.391789109E-2,-6.312040329E0,2.490341187E0,6.785589466E0
7.660876574E0,-1.281522661E-1,-6.271126747E0,2.280395031E0,6.674103324E0
7.665892355E0,-2.710231841E-1,-6.312652111E0,1.862908363E0,6.587371085E0
7.670908136E0,-2.702326775E-1,-6.368188858E0,1.319187641E0,6.509002309E0
7.675923969E0,-2.620085180E-1,-6.402248383E0,8.692684174E-1,6.466301910E0
7.680939751E0,-1.237559468E-1,-6.402535439E0,5.585565567E-1,6.428044882E0
7.685955584E0,-1.992721260E-1,-6.443135262E0,3.534383774E-1,6.455898084E0
7.690971365E0,-1.771333218E-1,-6.521467686E0,1.438302994E-1,6.525458156E0
7.695987199E0,-1.251020283E-1,-6.552902222E0,4.235458374E-2,6.554233132E0
7.701002980E0,-2.223670930E-1,-6.508975983E0,-1.902542114E-1,6.515551560E0
7.706018761E0,-2.264913917E-1,-6.569595337E0,-3.937568665E-1,6.585280990E0
7.711034594E0,-1.939860880E-1,-6.595248222E0,-5.082149506E-1,6.617644003E0
7.716050376E0,-3.708477318E-2,-6.592511177E0,-7.057085037E-1,6.630279285E0
7.721066209E0,-2.466628700E-1,-6.515550613E0,-7.468824387E-1,6.562855761E0
7.726081990E0,-2.145920396E-1,-6.562281609E0,-8.421554565E-1,6.619578194E0
7.731097824E0,-1.489876658E-1,-6.544130325E0,-1.089614868E0,6.635894785E0
7.736113605E0,-1.745409966E-1,-6.441969872E0,-1.283403397E0,6.570887662E0
7.741129386E0,-2.380226403E-1,-6.496517658E0,-1.418542862E0,6.653845528E0
7.746145219E0,-2.753928602E-1,-6.575735092E0,-1.533266068E0,6.757739124E0
7.751161001E0,-1.259607226E-1,-6.451655388E0,-1.598682404E0,6.647970275E0
7.756176834E0,-6.169296801E-2,-6.307783604E0,-1.693523407E0,6.531459373E0
7.761192615E0,-2.180635780E-1,-6.159235954E0,-1.834720612E0,6.430391822E0
7.766208449E0,-2.481229156E-1,-6.021980286E0,-2.297668457E0,6.450200918E0
7.771224230E0,-1.407612488E-2,-5.811059475E0,-2.926866531E0,6.506547322E0
7.776240063E0,-3.689215183E-1,-5.762829781E0,-3.207918167E0,6.605834477E0
7.781255844E0,-2.281659245E-1,-5.765692711E0,-3.430220604E0,6.712800125E0
7.786271626E0,-1.439940631E-1,-5.456181526E0,-3.330885887E0,6.394173280E0
7.791287459E0,4.184152186E-2,-5.040786266E0,-3.364788055E0,6.060781761E0
7.796303240E0,9.579624981E-2,-4.970645905E0,-3.857364655E0,6.292516167E0
7.801319074E0,-2.665338665E-2,-4.897705078E0,-4.294339180E0,6.513798771E0
7.806334855E0,-2.538018525E-1,-4.920702934E0,-4.711833000E0,6.817558432E0
7.811350636E0,-1.211068034E-1,-4.901626587E0,-4.691023827E0,6.785743482E0
7.816366469E0,1.137899458E-1,-4.739214897E0,-4.521605492E0,6.551184795E0
7.821382251E0,-1.515377164E-1,-4.569427490E0,-4.091286659E0,6.135247167E0
7.826398084E0,-8.450081944E-2,-4.371026993E0,-4.043707848E0,5.955215405E0
7.831413865E0,-1.612924784E-1,-4.360085487E0,-4.376218796E0,6.179615819E0
7.836429699E0,-8.439926803E-2,-4.212422371E0,-4.823214531E0,6.404297298E0
7.841445480E0,-1.929927766E-1,-4.182034492E0,-5.167032242E0,6.650179012E0
7.846461261E0,-2.057072967E-1,-4.107608795E0,-5.271327019E0,6.685929557E0
7.851477094E0,-1.260595024E-2,-3.855115891E0,-5.253539085E0,6.516268131E0
7.856492876E0,-9.471625090E-2,-3.568216324E0,-5.242954254E0,6.342689352E0
7.861508709E0,-2.604518831E-2,-3.345404863E0,-5.438123703E0,6.384794551E0
7.866524490E0,-1.514708549E-1,-3.246982098E0,-5.733711243E0,6.590999983E0
7.871540324E0,-7.751826942E-2,-3.086948395E0,-6.050778389E0,6.793171467E0
7.876556105E0,-9.946614504E-3,-2.908284187E0,-6.260143280E0,6.902724805E0
7.881571886E0,3.109008074E-3,-2.865301609E0,-6.330664635E0,6.948904784E0
7.886587719E0,-2.548398077E-1,-2.777598143E0,-6.075913429E0,6.685560468E0
7.891603501E0,-6.520502269E-2,-2.538776398E0,-5.840424538E0,6.368688725E0
7.896619334E0,2.120462656E-1,-2.278234005E0,-5.904017448E0,6.331882487E0
7.901635115E0,7.076844573E-2,-1.975180030E0,-6.029724121E0,6.345385512E0
7.906650949E0,-8.969005942E-2,-1.806658983E0,-6.286869049E0,6.541925055E0
7.911666730E0,-1.224904358E-1,-1.765174866E0,-6.486380577E0,6.723390455E0
7.916682563E0,5.046239495E-2,-1.667904019E0,-6.458507538E0,6.670589920E0
7.921698344E0,2.728676796E-2,-1.750623226E0,-6.174794197E0,6.418217013E0
7.926714126E0,7.310923934E-2,-1.655750275E0,-5.779018402E0,6.011980341E0
7.931729959E0,6.568494439E-2,-1.552426338E0,-5.546346664E0,5.759887444E0
7.936745740E0,1.033432782E-1,-1.095333695E0,-5.536623001E0,5.644876437E0
7.941761574E0,-1.292740256E-1,-9.700024724E-1,-5.864554405E0,5.945638312E0
7.946777355E0,1.228142679E-1,-7.039011717E-1,-6.419859886E0,6.459501619E0
7.951793188E0,-1.346269101E-1,-7.132019401E-1,-6.645231247E0,6.684749789E0
7.956808969E0,4.374870658E-2,-5.684945583E-1,-6.521953583E0,6.546829656E0
7.961824751E0,1.146558225E-1,-3.364530504E-1,-6.327907562E0,6.337882985E0
7.966840584E0,4.095622897E-2,-1.352196932E-1,-6.108801842E0,6.110435477E0
7.971856365E0,-1.208820194E-1,-3.022333980E-2,-6.182743073E0,6.183998530E0
7.976872199E0,2.778778672E-1,2.102140337E-1,-6.542230606E0,6.551502679E0
7.981887980E0,1.408431232E-1,1.805251390E-1,-6.852217674E0,6.856042092E0
7.986903813E0,-5.751901865E-2,3.259014785E-1,-6.866480827E0,6.874451190E0
7.991919594E0,-4.722633958E-2,6.152136326E-1,-6.795832634E0,6.823786290E0
7.996935376E0,-6.334593892E-2,7.117969990E-1,-6.707389832E0,6.745349956E0
8.001951209E0,1.794205308E-1,8.498873711E-1,-6.699209213E0,6.755287141E0
8.006966990E0,8.006459475E-2,8.379082084E-1,-6.735359192E0,6.787751023E0
8.011982824E0,1.277390420E-1,9.894294739E-1,-6.708182335E0,6.781961234E0
8.016998605E0,-9.040501714E-2,1.043776989E0,-6.656113625E0,6.738062930E0
8.022014438E0,-1.667025685E-2,1.239749312E0,-6.619821548E0,6.734930853E0
8.027030219E0,1.620771885E-1,1.477854490E0,-6.768937111E0,6.930283726E0
8.032046001E0,2.105762362E-1,1.745348096E0,-6.933281898E0,7.152690418E0
8.037061834E0,2.715370059E-2,1.802851439E0,-7.153466225E0,7.377200666E0
8.042077615E0,8.862408996E-2,2.040618896E0,-7.161565781E0,7.447147383E0
8.047093449E0,-2.694422007E-2,2.226364613E0,-7.089323997E0,7.430742905E0
8.052109230E0,2.292001247E-2,2.441970587E0,-6.896221161E0,7.315846634E0
8.057125063E0,2.262201309E-1,2.512494564E0,-6.833365440E0,7.284139463E0
8.062140844E0,1.326660514E-1,2.564879417E0,-6.792985916E0,7.262290573E0
8.067156626E0,9.955939651E-2,2.892722845E0,-6.684028625E0,7.283817419E0
8.072172459E0,-5.791482329E-2,3.064732075E0,-6.726412773E0,7.391925704E0
8.077188240E0,1.991809011E-1,3.148114204E0,-6.917468071E0,7.602740334E0
8.082204074E0,1.889505684E-1,3.190618038E0,-6.984310150E0,7.680907112E0
8.087219855E0,2.544614673E-2,3.202343464E0,-6.824359894E0,7.538404283E0
8.092235688E0,2.477786243E-1,3.410775661E0,-6.605260849E0,7.438027678E0
8.097251469E0,5.325973034E-2,3.456933737E0,-6.472926140E0,7.338392213E0
8.102267251E0,1.344788373E-1,3.670708179E0,-6.439038277E0,7.413055849E0
8.107283084E0,2.231529951E-1,3.900700331E0,-6.462629318E0,7.551876458E0
8.112298865E0,1.735615730E-1,3.922311306E0,-6.498168945E0,7.592157088E0
8.117314699E0,1.250573099E-1,4.121011734E0,-6.387824059E0,7.602806932E0
8.122330480E0,5.203381181E-2,4.315432072E0,-6.081742287E0,7.457429230E0
8.127346313E0,1.759468019E-1,4.509463310E0,-5.936077118E0,7.456757216E0
8.132362094E0,1.634826362E-1,4.578763485E0,-5.909947395E0,7.477919486E0
8.137377928E0,1.425195932E-1,4.717256546E0,-5.833369255E0,7.503400431E0
8.142393709E0,9.232324362E-2,4.769822121E0,-5.658715248E0,7.401404252E0
8.147409490E0,2.645567060E-1,5.137088776E0,-5.584117889E0,7.592235767E0
8.152425324E0,1.077519953E-1,5.208726406E0,-5.516014099E0,7.587414105E0
8.157441105E0,2.024178505E-1,5.228776932E0,-5.681447029E0,7.723983527E0
8.162456938E0,1.060388386E-1,5.336109161E0,-5.537313461E0,7.690718145E0
8.167472719E0,1.864432096E-1,5.533033371E0,-5.325474739E0,7.681790192E0
8.172488553E0,3.871072233E-1,5.735723019E0,-5.167856216E0,7.730142846E0
8.177504334E0,8.956891298E-2,5.733260155E0,-5.143115997E0,7.702592859E0
8.182520115E0,1.370728910E-1,5.789050102E0,-5.131493568E0,7.737190466E0
8.187535949E0,1.898297071E-1,6.001296043E0,-4.865200996E0,7.727986171E0
8.192551730E0,2.614451647E-1,6.047321320E0,-4.729631424E0,7.681657511E0
