"Time (s)","Linear Acceleration x (m/s^2)","Linear Acceleration y (m/s^2)","Linear Acceleration z (m/s^2)","Absolute acceleration (m/s^2)"
1.057002210E-1,-1.222619057E0,1.491900980E-1,2.203786373E-2,1.231885023E0
1.107165230E-1,-9.796266556E-1,7.562001050E-2,3.531229496E-2,9.831753295E-1
1.157328250E-1,-8.783006668E-1,3.576981649E-2,5.371725559E-2,8.806685441E-1
1.207491270E-1,-8.406791687E-1,4.349203780E-2,4.096451402E-2,8.427995690E-1
1.257653770E-1,-9.002695084E-1,9.655864537E-2,8.025002480E-2,9.089823024E-1
1.307816790E-1,-9.567594528E-1,1.909351349E-1,7.174700499E-3,9.756517579E-1
1.357979810E-1,-9.482421875E-1,2.774536014E-1,-2.070426643E-1,1.009460456E0
1.408142830E-1,-8.080110550E-1,3.661558330E-1,-4.145406187E-1,9.791812312E-1
1.458305850E-1,-7.363796234E-1,4.084455967E-1,-6.251399517E-1,1.048752933E0
1.508468870E-1,-6.382751465E-1,3.992616534E-1,-7.120240331E-1,1.036235135E0
1.558631370E-1,-5.189208984E-1,3.887359500E-1,-6.584638357E-1,9.241045182E-1
1.608794400E-1,-4.527702332E-1,3.233634830E-1,-5.170284510E-1,7.595283044E-1
1.658957420E-1,-4.147758484E-1,2.673877478E-1,-3.522705436E-1,6.063247875E-1
1.709120440E-1,-4.063005447E-1,2.669152021E-1,-2.149001956E-1,5.315128896E-1
1.759283460E-1,-4.288034439E-1,2.366810292E-1,-1.767302155E-1,5.206955657E-1
1.809446480E-1,-3.930549622E-1,2.566348314E-1,-1.540619433E-1,4.940533598E-1
1.859609500E-1,-3.099012375E-1,2.322094738E-1,-9.132951498E-2,3.978707039E-1
1.909772000E-1,-2.223892212E-1,2.530316710E-1,-1.998853683E-2,3.374633815E-1
1.959935020E-1,-1.281318665E-1,2.292520851E-1,4.525616765E-2,2.665003085E-1
2.010098040E-1,-7.373142242E-2,2.109556794E-1,9.683105350E-2,2.435464519E-1
2.060261060E-1,-6.040763855E-2,2.211660296E-1,1.326305568E-1,2.648666835E-1
2.110424080E-1,-1.151399612E-1,2.659817636E-1,1.509536505E-1,3.267881788E-1
2.160587100E-1,-2.573661804E-1,3.186454773E-1,1.266036928E-1,4.287199389E-1
2.210750120E-1,-4.782047272E-1,4.043113291E-1,1.243934929E-1,6.384521541E-1
2.260912620E-1,-6.895427704E-1,4.967098534E-1,1.248721182E-1,8.589429298E-1
2.311075650E-1,-7.210159302E-1,5.608516335E-1,1.771704853E-1,9.304879942E-1
2.361238670E-1,-6.164255142E-1,6.025313139E-1,2.263406515E-1,8.912095653E-1
2.411401690E-1,-5.097637177E-1,5.780154467E-1,2.538667619E-1,8.114242030E-1
2.461564710E-1,-4.360914230E-1,5.120880008E-1,2.646067142E-1,7.227908155E-1
2.511727730E-1,-3.594665527E-1,4.501998425E-1,2.727821171E-1,6.374215121E-1
2.561890750E-1,-3.150615692E-1,3.502145410E-1,2.482942939E-1,5.325073459E-1
2.612053250E-1,-2.387466431E-1,2.690602541E-1,2.744949460E-1,4.524829890E-1
2.662216270E-1,-1.099805832E-1,2.227219641E-1,2.922334075E-1,3.835376988E-1
2.712379290E-1,-5.174446106E-2,1.707783937E-1,2.520334125E-1,3.088099578E-1
2.762542310E-1,1.723480225E-2,2.047703862E-1,2.152943611E-1,2.976232709E-1
2.812705330E-1,1.061735153E-1,2.527660728E-1,1.332802474E-1,3.048395106E-1
2.862868350E-1,1.818180084E-1,3.075009286E-1,-1.817485690E-2,3.576939121E-1
2.913031370E-1,1.739006042E-1,3.409508467E-1,-1.504821777E-1,4.112587821E-1
2.963193870E-1,1.920070648E-1,3.348719478E-1,-2.107949555E-1,4.398186531E-1
3.013356900E-1,2.051820755E-1,3.564592898E-1,-3.093753159E-1,5.146610491E-1
3.063519920E-1,3.076820374E-1,3.557741642E-1,-2.319709063E-1,5.244559022E-1
3.113682940E-1,3.473682404E-1,3.301861286E-1,-2.496608198E-1,5.403869899E-1
3.163845960E-1,1.321668625E-1,2.679090500E-1,-2.240884602E-1,3.734420659E-1
3.214008980E-1,-9.198188782E-3,2.668790519E-1,-1.465104222E-1,3.045888029E-1
3.264172000E-1,-9.142465591E-1,3.352605402E-1,-5.697028041E-1,1.128187788E0
3.314335020E-1,-8.607673645E-1,4.890845418E-1,-1.338909864E-1,9.990249952E-1
3.364497520E-1,-9.687385559E-1,4.699683785E-1,-6.892631054E-1,1.278439789E0
3.414660540E-1,-8.984899521E-1,4.862664938E-1,-9.816348553E-2,1.026340765E0
3.464823560E-1,-4.213304520E-1,4.810894430E-1,3.016588390E-1,7.070816481E-1
3.514986580E-1,-1.656818390E-1,3.203258514E-1,4.601898193E-1,5.846655392E-1
3.565149600E-1,-1.329917908E-1,9.028261900E-2,6.384044886E-1,6.583297492E-1
3.615312620E-1,-4.358501434E-1,-8.636748791E-2,7.221953869E-1,8.479332918E-1
3.665475650E-1,-9.588737488E-1,-9.031000733E-2,7.058055401E-1,1.194050344E0
3.715638150E-1,-1.158694267E0,5.443376303E-2,4.481454492E-1,1.243531175E0
3.765801170E-1,-1.204956055E0,4.077051878E-1,1.767015755E-1,1.284276474E0
3.815964190E-1,-4.359846115E-1,4.367440939E-1,-1.328452229E-1,6.312494264E-1
3.866127210E-1,-5.759143829E-2,2.850602269E-1,-2.067014575E-1,3.567934967E-1
3.916290230E-1,5.831718445E-2,9.615504742E-2,-1.376639605E-1,1.777584123E-1
3.966453250E-1,9.954738617E-2,-3.066861629E-2,-7.500916719E-2,1.283612920E-1
4.016616270E-1,1.332130432E-1,-7.754746079E-2,-1.592630148E-2,1.549611907E-1
4.066779290E-1,1.381483078E-1,-9.519848228E-2,-2.892190218E-2,1.702474153E-1
4.116942310E-1,1.075992584E-1,-1.005737484E-1,-3.949522972E-2,1.524878764E-1
4.167104810E-1,2.069091797E-2,-8.669826388E-2,-3.544723988E-2,9.592293710E-2
4.217267830E-1,-7.936286926E-2,-9.424716234E-2,-5.959182978E-2,1.368655501E-1
4.267430850E-1,-1.427288055E-1,-8.975467086E-2,-5.756139755E-2,1.781592753E-1
4.317593870E-1,-1.982584000E-1,-6.633597612E-2,-7.456660271E-2,2.219617830E-1
4.367756900E-1,-2.389535904E-1,-5.267065763E-2,-9.158974886E-2,2.612693986E-1
4.417919920E-1,-2.768468857E-1,-2.983224392E-2,-1.440470815E-1,3.135023486E-1
4.468082940E-1,-3.119525909E-1,9.191811085E-3,-1.822096705E-1,3.613852133E-1
4.518245960E-1,-3.632583618E-1,2.635729313E-2,-1.942413449E-1,4.127723881E-1
4.568408460E-1,-3.335189819E-1,4.096549749E-2,-1.616762877E-1,3.728971779E-1
4.618571480E-1,-3.775186539E-1,7.762849331E-3,-1.515086889E-1,4.068605150E-1
4.668734500E-1,-4.423885345E-1,3.071725368E-3,-1.205130219E-1,4.585198354E-1
4.718897520E-1,-4.853181839E-1,-2.801847458E-2,-8.044749498E-2,4.927378349E-1
4.769060540E-1,-4.260129929E-1,-6.623500586E-2,-4.576247931E-2,4.335531693E-1
4.819223560E-1,-3.911008835E-1,-8.298856020E-2,9.963691235E-3,3.999328410E-1
4.869386580E-1,-3.661088943E-1,-9.767085314E-2,6.984537840E-2,3.852968920E-1
4.919549600E-1,-3.153953552E-1,-1.196613908E-1,1.316345334E-1,3.621059637E-1
4.969712620E-1,-1.965227127E-1,-1.583378911E-1,1.971712708E-1,3.202632892E-1
5.019875120E-1,-9.783267975E-2,-1.823018789E-1,2.525267601E-1,3.264582253E-1
5.070038150E-1,9.387969971E-3,-1.819258928E-1,2.712902725E-1,3.267775641E-1
5.120201170E-1,1.037273407E-1,-1.527237594E-1,2.991431057E-1,3.515259672E-1
5.170364190E-1,1.165723801E-1,-1.352149248E-1,2.936510444E-1,3.436613617E-1
5.220527210E-1,1.103954315E-1,-8.153891563E-2,2.383504510E-1,2.750394218E-1
5.270690230E-1,1.090784073E-1,3.162765503E-2,1.812891960E-1,2.139256415E-1
5.320853250E-1,8.408832550E-2,1.632924676E-1,1.014636159E-1,2.098336051E-1
5.371016270E-1,1.668262482E-2,2.987583280E-1,2.949666977E-2,3.006740794E-1
5.421178770E-1,-6.666088104E-2,3.858013749E-1,1.260393858E-2,3.917208613E-1
5.471341790E-1,-1.681852341E-1,4.436184764E-1,3.588026762E-2,4.757846353E-1
5.521504810E-1,-2.070503235E-1,4.939339161E-1,8.415377140E-2,5.421461124E-1
5.571667830E-1,-2.881622314E-1,4.848003387E-1,1.234585643E-1,5.773308039E-1
5.621830850E-1,-3.684396744E-1,4.452519417E-1,1.441864967E-1,5.956398501E-1
5.671993870E-1,-4.526453018E-1,4.181960821E-1,1.274594069E-1,6.293024970E-1
5.722156900E-1,-5.336580276E-1,3.560261726E-1,7.377278805E-2,6.457460417E-1
5.772319920E-1,-6.281423569E-1,3.372353911E-1,4.282581806E-2,7.142300611E-1
5.822482940E-1,-7.099180222E-1,2.947205305E-1,-3.507435322E-3,7.686716408E-1
5.872645960E-1,-7.624969482E-1,2.446922660E-1,-6.587815285E-2,8.035022291E-1
5.922808460E-1,-7.600536346E-1,1.795092821E-1,-1.731809378E-1,7.999354643E-1
5.972971480E-1,-6.745424271E-1,6.824541092E-2,-2.904350758E-1,7.375753895E-1
6.023134500E-1,-5.114612579E-1,-3.901207447E-2,-4.597838521E-1,6.888510369E-1
6.073297520E-1,-3.070564270E-1,-1.656607389E-1,-7.137120962E-1,7.944256328E-1
6.123460540E-1,-9.021472931E-2,-2.470703721E-1,-1.021094322E0,1.054426897E0
6.173623560E-1,1.128282547E-1,-2.998110354E-1,-1.299249887E0,1.338158116E0
6.223786580E-1,2.451562881E-1,-2.952324748E-1,-1.446700096E0,1.496731435E0
6.273949600E-1,3.809871674E-1,-2.760751843E-1,-1.473556280E0,1.546847387E0
6.324112100E-1,4.514007568E-1,-2.472016811E-1,-1.408101797E0,1.499207119E0
6.374275120E-1,4.759387970E-1,-2.204939723E-1,-1.181947231E0,1.293110431E0
6.424438150E-1,4.455118179E-1,-2.364287376E-1,-9.824171662E-1,1.104320070E0
6.474601170E-1,3.511304855E-1,-2.874657512E-1,-7.935453653E-1,9.141353416E-1
6.524764190E-1,2.646055222E-1,-3.519422412E-1,-6.045089960E-1,7.478706772E-1
6.574927210E-1,1.360940933E-1,-4.272224009E-1,-4.713109136E-1,6.505186848E-1
6.625090230E-1,-2.689647675E-2,-4.894792736E-1,-3.372716904E-1,5.950340938E-1
6.675253250E-1,-2.026777267E-1,-5.318944454E-1,-1.630971730E-1,5.921069581E-1
6.725416270E-1,-4.220361710E-1,-5.834970474E-1,-1.091250777E-2,7.202099810E-1
6.775578770E-1,-5.777873993E-1,-6.207030416E-1,4.324376583E-2,8.491057460E-1
6.825741790E-1,-6.633358002E-1,-5.887796879E-1,1.719388366E-2,8.871141608E-1
6.875904810E-1,-6.247148514E-1,-4.672157466E-1,-3.557699919E-2,7.809128775E-1
6.926067830E-1,-5.698738098E-1,-2.997725606E-1,-6.865608692E-2,6.475595768E-1
6.976230850E-1,-4.704437256E-1,-1.483746767E-1,-1.248060167E-1,5.088309006E-1
7.026393870E-1,-3.292016983E-1,-3.558933735E-3,-2.319625318E-1,4.027319708E-1
7.076556900E-1,-1.630935669E-1,1.397227049E-1,-3.564832211E-1,4.161757234E-1
7.126719920E-1,5.378818512E-2,3.243697286E-1,-4.574535191E-1,5.633583334E-1
7.176882940E-1,2.331943512E-1,4.716997147E-1,-4.903624058E-1,7.192603946E-1
7.227045960E-1,3.041973114E-1,5.794286132E-1,-4.369683266E-1,7.869020527E-1
7.277208460E-1,2.652788162E-1,5.878452063E-1,-3.578427434E-1,7.375542460E-1
7.327371480E-1,1.767024994E-1,5.213220119E-1,-2.203861177E-1,5.929337689E-1
7.377534500E-1,6.735324860E-2,4.467446208E-1,-6.563767791E-2,4.565364400E-1
7.427697520E-1,-3.410911560E-2,3.761814237E-1,1.087231636E-1,3.930605826E-1
7.477860540E-1,-1.111373901E-1,2.669702172E-1,2.672620118E-1,3.937684590E-1
7.528023560E-1,-1.069488525E-1,1.884351969E-1,3.673359156E-1,4.264757383E-1
7.578186580E-1,-7.200527191E-2,1.027716398E-1,3.920216262E-1,4.116159916E-1
7.628349600E-1,5.367279053E-3,4.363477230E-2,3.267898560E-1,3.297338487E-1
7.678512620E-1,9.637737274E-2,-3.166151047E-2,2.072085440E-1,2.307085389E-1
7.728675650E-1,1.652812958E-1,-2.804005146E-2,1.264114082E-1,2.099618902E-1
7.778838150E-1,2.027912140E-1,-1.935434341E-2,1.010381281E-1,2.273929867E-1
7.829001170E-1,2.067480087E-1,9.156405926E-2,4.828885198E-2,2.312153310E-1
7.879164190E-1,1.679306030E-1,2.613574266E-1,2.529144287E-3,3.106682933E-1
7.929327210E-1,1.246728897E-1,4.824399948E-1,-1.434223354E-2,4.984951130E-1
7.979490230E-1,1.743240356E-1,6.900745630E-1,-7.138827443E-2,7.153237433E-1
8.029653250E-1,1.522560120E-1,8.057875633E-1,-1.561067700E-1,8.347723127E-1
8.079816270E-1,1.041116714E-1,8.559288979E-1,-2.633275390E-1,9.015513913E-1
8.129979290E-1,1.275110245E-1,8.581620455E-1,-3.027847409E-1,9.189013859E-1
8.180142310E-1,3.761796951E-1,9.197189808E-1,-3.057812750E-1,1.039661654E0
8.230305330E-1,3.876447678E-1,8.881419897E-1,-2.479704916E-1,1.000276974E0
8.280468350E-1,3.656816483E-1,8.376947641E-1,-1.567403972E-1,9.273743246E-1
8.330630850E-1,3.152971268E-1,7.493971586E-1,-4.860173166E-2,8.144756030E-1
8.380793870E-1,2.533435822E-1,6.235351562E-1,4.561607540E-2,6.745812687E-1
8.430956900E-1,1.395206451E-1,4.767737389E-1,7.857310027E-2,5.029442718E-1
8.481119920E-1,8.587551117E-2,2.928382158E-1,7.806725800E-3,3.052699937E-1
8.531282940E-1,1.299047470E-1,1.718099117E-1,-1.466304809E-1,2.605655138E-1
8.581445960E-1,1.592283249E-1,9.426319599E-2,-2.319272161E-1,2.966975617E-1
8.631608980E-1,1.929912567E-1,1.965391636E-2,-1.321104169E-1,2.347020747E-1
8.681772000E-1,2.169437408E-1,-4.471468925E-2,1.066426039E-1,2.458386363E-1
8.731935020E-1,1.979665756E-1,-6.311178207E-2,3.765327930E-1,4.300590731E-1
8.782097520E-1,1.767644882E-1,-6.927549839E-2,4.916995466E-1,5.270799020E-1
8.832260540E-1,1.865787506E-1,-7.054722309E-2,5.286676884E-1,5.650469587E-1
8.882423560E-1,2.057476044E-1,-8.619213104E-2,4.544212222E-1,5.062211052E-1
8.932586580E-1,2.650680542E-1,-8.754205704E-2,3.327118456E-1,4.343061792E-1
8.982749600E-1,3.570785522E-1,-7.949233055E-2,1.563207060E-1,3.978194141E-1
9.032912620E-1,4.672851562E-1,-8.571624756E-2,-5.072911456E-2,4.777825189E-1
9.083075650E-1,5.361757278E-1,-9.425020218E-2,-2.048468888E-1,5.816612069E-1
9.133238670E-1,5.047569275E-1,-1.334761381E-1,-2.175091505E-1,5.656020384E-1
9.183401690E-1,4.617414474E-1,-1.673527956E-1,-6.776726991E-2,4.957867741E-1
9.233564710E-1,4.427957535E-1,-1.937823296E-1,1.176476330E-1,4.974541548E-1
9.283727730E-1,3.599004745E-1,-2.245829105E-1,2.744826376E-1,5.052786891E-1
9.333890750E-1,3.332080841E-1,-2.274606228E-1,3.894671500E-1,5.607589706E-1
9.384053250E-1,2.899694443E-1,-2.303190231E-1,4.302347898E-1,5.676540367E-1
9.434216270E-1,2.754745483E-1,-2.119299173E-1,3.708906472E-1,5.082916376E-1
9.484379290E-1,2.490882874E-1,-1.985994577E-1,2.778792679E-1,4.227334941E-1
9.534542310E-1,2.394170761E-1,-1.904445887E-1,1.653482020E-1,3.477494868E-1
9.584705330E-1,1.582708359E-1,-1.778537035E-1,2.886774763E-2,2.398227349E-1
9.634868350E-1,1.037139893E-1,-1.510361433E-1,-1.189212594E-2,1.836026438E-1
9.685031370E-1,2.326202393E-2,-1.312403679E-1,-5.418481305E-5,1.332860040E-1
9.735194400E-1,-5.206966400E-2,-5.211758614E-2,5.993983895E-2,9.497513878E-2
9.785357420E-1,-2.390375137E-1,7.317781448E-3,2.350699008E-1,3.353361614E-1
9.835520440E-1,-4.180402756E-1,6.596493721E-2,4.819431305E-1,6.413877345E-1
9.885682940E-1,-5.082216263E-1,1.163390875E-1,6.732689738E-1,8.515369139E-1
9.935845960E-1,-5.291652679E-1,1.081485748E-1,7.447229624E-1,9.199588500E-1
9.986008980E-1,-5.098209381E-1,1.155014038E-1,7.316479683E-1,8.992033767E-1
1.003617200E0,-4.361562729E-1,5.472040176E-2,6.437411904E-1,7.795058287E-1
1.008633502E0,-3.369789124E-1,-3.548240662E-2,4.904456437E-1,5.961130077E-1
1.013649804E0,-1.862030029E-1,-1.143792868E-1,3.410717845E-1,4.050730079E-1
1.018666106E0,1.361751556E-2,-2.150049210E-1,2.217768729E-1,3.091885090E-1
1.023682408E0,1.908607483E-1,-2.939709425E-1,1.899001300E-1,3.986336660E-1
1.028698710E0,3.599739075E-1,-3.822124004E-1,2.163333297E-1,5.678623448E-1
1.033715012E0,5.019893646E-1,-4.223089218E-1,2.510952950E-1,7.024151157E-1
1.038731315E0,6.528882980E-1,-4.592775106E-1,2.202936113E-1,8.280870949E-1
1.043747565E0,7.817401886E-1,-4.499381781E-1,2.098759413E-1,9.260723499E-1
1.048763867E0,8.362464905E-1,-4.659945965E-1,1.630015373E-1,9.710966265E-1
1.053780169E0,8.333997726E-1,-4.479632378E-1,9.430191666E-2,9.508517734E-1
1.058796471E0,7.496404648E-1,-4.246582985E-1,-5.518995225E-3,8.615834006E-1
1.063812773E0,6.591758728E-1,-3.724750280E-1,-8.547791094E-2,7.619428791E-1
1.068829075E0,5.286254883E-1,-2.941591740E-1,-1.618899107E-1,6.262450556E-1
1.073845377E0,3.628644943E-1,-2.068533897E-1,-1.581636071E-1,4.466258979E-1
1.078861679E0,2.239093781E-1,-1.276714802E-1,-1.026875675E-1,2.774529743E-1
1.083877981E0,1.306724548E-1,-4.236936569E-3,-3.586173058E-2,1.355702984E-1
1.088894283E0,7.347106934E-2,1.110553741E-1,6.906551123E-2,1.500044633E-1
1.093910533E0,6.640052795E-2,2.419710159E-1,1.713327765E-1,3.038320638E-1
1.098926835E0,3.058433533E-2,3.265175819E-1,1.870032847E-1,3.775173657E-1
1.103943137E0,1.855945587E-2,4.125254154E-1,1.330303997E-1,4.338418594E-1
1.108959440E0,8.742332458E-3,4.832584858E-1,7.867555320E-2,4.896989230E-1
1.113975742E0,2.023696899E-2,5.604445934E-1,9.537526220E-2,5.688621255E-1
1.118992044E0,2.192592621E-2,5.986959934E-1,1.132878140E-1,6.097144968E-1
1.124008346E0,2.332305908E-2,6.289765835E-1,1.800640970E-1,6.546591378E-1
1.129024648E0,3.158569336E-2,5.870285034E-1,2.500367165E-1,6.388415135E-1
1.134040950E0,5.137252808E-2,5.206160545E-1,3.613572419E-1,6.358138636E-1
1.139057252E0,8.979606628E-2,4.203972816E-1,4.444237351E-1,6.183119474E-1
1.144073554E0,1.706552505E-1,3.010187149E-1,4.176921546E-1,5.424041089E-1
1.149089804E0,2.938165665E-1,1.556112766E-1,3.094939291E-1,4.542351113E-1
1.154106106E0,4.043922424E-1,1.802134514E-2,1.946103424E-1,4.491447873E-1
1.159122408E0,4.405546188E-1,-1.067404747E-1,1.876885891E-1,4.906209408E-1
1.164138710E0,4.765176773E-1,-1.901588440E-1,2.265160382E-1,5.608377647E-1
1.169155012E0,4.933395386E-1,-2.534778118E-1,3.610595167E-1,6.618148351E-1
1.174171315E0,4.457101822E-1,-3.042716980E-1,4.145676494E-1,6.805183088E-1
1.179187617E0,4.149322510E-1,-3.259928226E-1,4.419053793E-1,6.882735340E-1
1.184203919E0,3.771238327E-1,-3.687443733E-1,3.307694495E-1,6.225778881E-1
1.189220221E0,4.062509537E-1,-3.679924011E-1,2.240781784E-1,5.921733485E-1
1.194236523E0,4.524793625E-1,-3.534827232E-1,2.039710432E-1,6.093371773E-1
1.199252825E0,4.034118652E-1,-3.837587833E-1,2.511616647E-1,6.108143078E-1
1.204269075E0,3.428926468E-1,-3.375380039E-1,2.886790037E-1,5.611085800E-1
1.209285377E0,2.543430328E-1,-3.248398304E-1,3.238425255E-1,5.244857244E-1
1.214301679E0,1.759109497E-1,-3.005015850E-1,3.189546466E-1,4.722053911E-1
1.219317981E0,9.567260742E-2,-2.953765392E-1,3.625282645E-1,4.773125709E-1
1.224334283E0,1.833915710E-2,-2.738332748E-1,4.046716094E-1,4.889581767E-1
1.229350585E0,-1.578140259E-2,-2.384383678E-1,4.483696222E-1,5.080720678E-1
1.234366887E0,-1.021604538E-1,-2.395472527E-1,4.655893445E-1,5.334726631E-1
1.239383190E0,-1.881866455E-1,-2.200160027E-1,4.371956885E-1,5.243675476E-1
1.244399492E0,-2.763061523E-1,-1.967976093E-1,3.259782791E-1,4.704638427E-1
1.249415742E0,-3.523168564E-1,-1.818983555E-1,3.233092427E-1,5.116082930E-1
1.254432044E0,-3.949470520E-1,-1.799387932E-1,3.838224113E-1,5.793796567E-1
1.259448346E0,-3.783779144E-1,-1.314780712E-1,4.332880974E-1,5.900804222E-1
1.264464648E0,-3.671636581E-1,-1.341047287E-1,4.097686708E-1,5.663069783E-1
1.269480950E0,-2.805204391E-1,-1.326994896E-1,3.402802944E-1,4.605339836E-1
1.274497252E0,-1.403856277E-1,-1.247541904E-1,2.602190077E-1,3.209137961E-1
1.279513554E0,2.925491333E-2,-1.358892918E-1,1.676314175E-1,2.177660251E-1
1.284529856E0,1.688117981E-1,-1.232020855E-1,1.400821209E-1,2.515932782E-1
1.289546158E0,2.880592346E-1,-1.271643639E-1,8.936591446E-2,3.273150848E-1
1.294562460E0,3.611869812E-1,-1.354365349E-1,9.858028591E-2,3.981421394E-1
1.299578762E0,4.052381516E-1,-1.194057465E-1,1.460326463E-1,4.469913037E-1
1.304595065E0,4.252624512E-1,-1.171500683E-1,1.999565661E-1,4.843087024E-1
1.309611315E0,4.210615158E-1,-8.366203308E-2,2.014215738E-1,4.741969910E-1
1.314627617E0,3.741817474E-1,-6.851816177E-2,1.875568032E-1,4.241276613E-1
1.319643919E0,3.156986237E-1,-5.281376839E-2,1.536706835E-1,3.550628030E-1
1.324660221E0,2.432804108E-1,-3.652548790E-2,1.765634567E-1,3.028103759E-1
1.329676523E0,1.450862885E-1,-1.722383499E-2,1.985566169E-1,2.465186032E-1
1.334692825E0,1.634407043E-2,4.781508446E-2,1.848938465E-1,1.916745821E-1
1.339709127E0,-1.334238052E-1,9.372615814E-2,1.570670307E-1,2.263991092E-1
1.344725429E0,-3.757591248E-1,1.633980274E-1,1.084814444E-1,4.238656143E-1
1.349741731E0,-5.815448761E-1,1.994705200E-1,5.613553524E-2,6.173606155E-1
1.354758033E0,-7.914857864E-1,2.760090828E-1,2.917891741E-2,8.387384414E-1
1.359774283E0,-9.102935791E-1,3.592090607E-1,2.276539803E-2,9.788686392E-1
1.364790585E0,-1.031260490E0,4.277386665E-1,2.948915958E-2,1.116838474E0
1.369806887E0,-1.035111427E0,4.816861153E-1,1.588654518E-2,1.141809775E0
1.374823190E0,-1.032017708E0,5.210494995E-1,-2.557301521E-2,1.156376716E0
1.379839492E0,-9.933443069E-1,4.934577942E-1,-1.359345317E-1,1.117457697E0
1.384855794E0,-9.168004990E-1,4.588222504E-1,-2.391763628E-1,1.052732798E0
1.389872096E0,-7.738685608E-1,3.743033409E-1,-2.729532719E-1,9.019307230E-1
1.394888398E0,-6.435518265E-1,2.948517799E-1,-2.495543659E-1,7.505823786E-1
1.399904700E0,-4.756441116E-1,1.919269562E-1,-2.217978537E-1,5.588090598E-1
1.404921002E0,-2.751493454E-1,6.542634964E-2,-2.181043327E-1,3.571516057E-1
1.409937252E0,-6.350326538E-2,-3.667116165E-2,-2.657378316E-1,2.756701543E-1
1.414953554E0,1.448383331E-1,-1.575737000E-1,-3.283524513E-1,3.919476316E-1
1.419969856E0,3.474874496E-1,-3.091845512E-1,-3.986557722E-1,6.125920658E-1
1.424986158E0,4.989466667E-1,-4.440360069E-1,-3.953093588E-1,7.761348084E-1
1.430002460E0,5.850696564E-1,-4.906201363E-1,-3.444994092E-1,8.376720503E-1
1.435018762E0,6.226701736E-1,-5.615730286E-1,-3.178998232E-1,8.967400455E-1
1.440035065E0,6.644229889E-1,-5.803942680E-1,-2.698058486E-1,9.225565622E-1
1.445051367E0,6.625576019E-1,-5.854468346E-1,-1.950397491E-1,9.054121027E-1
1.450067669E0,5.742692947E-1,-4.979844093E-1,-1.025308073E-1,7.669982146E-1
1.455083971E0,4.571323395E-1,-4.255771637E-1,-3.243079782E-2,6.254099893E-1
1.460100273E0,3.565883636E-1,-2.893972397E-1,-2.295133471E-2,4.598182110E-1
1.465116523E0,2.463874817E-1,-1.562733650E-1,-1.126509905E-2,2.919846883E-1
1.470132825E0,1.574964523E-1,1.905345917E-2,1.236623526E-2,1.591260211E-1
1.475149127E0,1.256885529E-1,2.007875443E-1,4.810929298E-3,2.369312037E-1
1.480165429E0,6.844997406E-2,3.848490715E-1,4.524463415E-2,3.934987722E-1
1.485181731E0,-3.367033005E-1,6.085758209E-1,4.707061946E-1,8.398201974E-1
1.490198033E0,-4.781932831E-1,7.329397202E-1,5.331510901E-1,1.024753402E0
1.495214335E0,-3.926000595E-1,7.918448448E-1,6.378868222E-1,1.089978286E0
1.500230637E0,-1.519336700E-1,8.242511749E-1,6.023727059E-1,1.032146654E0
1.505246940E0,1.605396271E-1,8.670973778E-1,4.393194914E-1,9.852068057E-1
1.510263242E0,4.548835754E-1,9.024500847E-1,1.345529556E-1,1.019529166E0
1.515279492E0,7.486109734E-1,9.383354187E-1,-2.249453068E-1,1.221266612E0
1.520295794E0,9.492092133E-1,9.825768471E-1,-3.697627783E-1,1.415337381E0
1.525312096E0,1.078576565E0,9.923963547E-1,-3.426216841E-1,1.505180238E0
1.530328398E0,1.084238052E0,9.486637115E-1,-1.709479690E-1,1.450778481E0
1.535344700E0,1.002027988E0,8.894476891E-1,7.049506903E-2,1.341695508E0
1.540361002E0,8.843650818E-1,7.763395309E-1,3.165801764E-1,1.218617115E0
1.545377304E0,6.906948090E-1,6.906366348E-1,5.158219934E-1,1.104586171E0
1.550393606E0,4.903535843E-1,6.010708809E-1,5.825686455E-1,9.701129152E-1
1.555409908E0,3.526372910E-1,5.577430725E-1,5.093268156E-1,8.335731516E-1
1.560426210E0,2.727379799E-1,5.367341042E-1,3.315219283E-1,6.872963649E-1
1.565442512E0,2.457242012E-1,5.235304832E-1,1.368576288E-1,5.943017420E-1
1.570458762E0,2.070403099E-1,5.563454628E-1,-1.486510038E-2,5.938071531E-1
1.575475065E0,2.283816338E-1,6.327109337E-1,-9.041482210E-2,6.787165360E-1
1.580491367E0,1.162304878E-1,7.262573242E-1,-9.198480844E-2,7.412290012E-1
1.585507669E0,-6.248617172E-2,8.532958031E-1,-4.935860634E-3,8.555948877E-1
1.590523971E0,-2.884778976E-1,9.398474693E-1,1.258466244E-1,9.911458701E-1
1.595540273E0,-4.781999588E-1,1.048008919E0,2.697077990E-1,1.183106162E0
1.600556575E0,-6.318936348E-1,1.177505016E0,3.665860295E-1,1.385710268E0
1.605572877E0,-7.520165443E-1,1.335465431E0,3.663483262E-1,1.575819754E0
1.610589179E0,-7.741761208E-1,1.438314438E0,2.690142393E-1,1.655435214E0
1.615605481E0,-8.202915192E-1,1.505390644E0,2.177145481E-1,1.728143163E0
1.620621783E0,-8.376555443E-1,1.558328152E0,1.162061691E-1,1.773007984E0
1.625638033E0,-7.976403236E-1,1.544720650E0,9.819269180E-3,1.738530526E0
1.630654335E0,-7.575750351E-1,1.474358082E0,-7.336270809E-2,1.659226860E0
1.635670637E0,-7.006869316E-1,1.328424454E0,-1.522494555E-1,1.509587229E0
1.640686940E0,-6.220126152E-1,1.155113220E0,-2.126941681E-1,1.329069244E0
1.645703242E0,-5.430574417E-1,9.926919937E-1,-2.476981878E-1,1.158319115E0
1.650719544E0,-4.228820801E-1,7.866697311E-1,-2.331751585E-1,9.230650974E-1
1.655735846E0,-3.523087502E-1,6.302266121E-1,-2.098138332E-1,7.518835566E-1
1.660752148E0,-2.739930153E-1,4.754199982E-1,-1.867427826E-1,5.796285137E-1
1.665768450E0,-2.164344788E-1,3.844895363E-1,-1.542295218E-1,4.674000775E-1
1.670784752E0,-1.629343033E-1,3.524250984E-1,-1.357964277E-1,4.113291954E-1
1.675801002E0,-1.849961281E-1,3.290171623E-1,-4.776322842E-2,3.804696920E-1
1.680817304E0,-2.133455276E-1,3.451199532E-1,3.361582756E-2,4.071291197E-1
1.685833606E0,-2.695508003E-1,3.861870766E-1,9.177196026E-2,4.798126559E-1
1.690849908E0,-3.322563171E-1,4.686141014E-1,1.148312092E-1,5.858153659E-1
1.695866210E0,-4.276018143E-1,5.732164383E-1,8.586931229E-2,7.202735144E-1
1.700882512E0,-4.673748016E-1,6.877675056E-1,8.140802383E-2,8.355181706E-1
1.705898815E0,-5.712571144E-1,7.834191322E-1,1.013811827E-1,9.748632580E-1
1.710915117E0,-6.483955383E-1,8.434629440E-1,1.122565269E-1,1.069788783E0
1.715931419E0,-6.776733398E-1,9.250454903E-1,7.849752903E-2,1.149396440E0
1.720947721E0,-6.904449463E-1,1.001651764E0,1.448917389E-2,1.216647203E0
1.725964023E0,-6.722574234E-1,9.992933273E-1,-8.776903152E-2,1.207568052E0
1.730980273E0,-6.686034203E-1,1.008773327E0,-2.142610550E-1,1.229049209E0
1.735996575E0,-7.176108360E-1,9.869909286E-1,-2.461196184E-1,1.244865965E0
1.741012877E0,-7.735290527E-1,9.580016136E-1,-2.272502184E-1,1.252101014E0
1.746029179E0,-8.696565628E-1,9.075436592E-1,-1.341454983E-1,1.264093764E0
1.751045481E0,-1.034427643E0,8.954272270E-1,5.203151703E-2,1.369137592E0
1.756061783E0,-1.319999695E0,9.097409248E-1,2.020413876E-1,1.615812015E0
1.761078085E0,-1.625953197E0,9.479341507E-1,2.997913361E-1,1.905827327E0
1.766094387E0,-1.971503258E0,9.524807930E-1,3.407139778E-1,2.215881488E0
1.771110690E0,-2.323055267E0,1.002418518E0,3.373736143E-1,2.552498701E0
1.776126940E0,-2.635369778E0,1.040329933E0,2.380142212E-1,2.843257112E0
1.781143242E0,-2.915629864E0,1.087816715E0,1.335983276E-1,3.114818008E0
1.786159544E0,-3.161675453E0,1.144788742E0,-1.375925541E-2,3.362576728E0
1.791175846E0,-3.337538242E0,1.173202038E0,-1.803548336E-1,3.542328670E0
1.796192148E0,-3.340442657E0,1.204460144E0,-3.255974054E-1,3.565851239E0
1.801208450E0,-3.170348644E0,1.210291386E0,-4.762605429E-1,3.426768138E0
1.806224752E0,-2.829393387E0,1.141159058E0,-5.709346533E-1,3.103816572E0
1.811241054E0,-2.479822636E0,1.040631294E0,-5.984336138E-1,2.755096475E0
1.816257356E0,-2.131062984E0,9.136958122E-1,-4.944155216E-1,2.370804966E0
1.821273658E0,-1.837875843E0,7.796525955E-1,-3.141074181E-1,2.020967406E0
1.826289960E0,-1.607397079E0,6.814427376E-1,-5.018198490E-2,1.746598926E0
1.831306262E0,-1.413453579E0,5.806555748E-1,2.118401527E-1,1.542688616E0
1.836322512E0,-1.292391300E0,4.649534225E-1,5.015049577E-1,1.462177890E0
1.841338815E0,-1.232584953E0,3.578310013E-1,7.187421918E-1,1.471019725E0
1.846355117E0,-1.157766819E0,2.996482849E-1,8.879999518E-1,1.489549266E0
1.851371419E0,-1.132904053E0,2.684340477E-1,9.763884544E-1,1.519494273E0
1.856387721E0,-1.065013409E0,2.591381073E-1,1.017820001E0,1.495781960E0
1.861404023E0,-1.025817871E0,3.028488159E-1,9.937774539E-1,1.460004568E0
1.866420325E0,-9.149584770E-1,3.971557617E-1,9.480355978E-1,1.376100726E0
1.871436627E0,-7.993698120E-1,5.253381729E-1,8.235090971E-1,1.262196310E0
1.876452929E0,-6.811475754E-1,6.851973534E-1,6.275582910E-1,1.152079355E0
1.881469231E0,-5.576353073E-1,8.004322052E-1,3.767751455E-1,1.045757315E0
1.886485481E0,-4.741358757E-1,8.640084267E-1,8.529090881E-2,9.892370439E-1
1.891501783E0,-4.400572777E-1,8.592329025E-1,-2.069764137E-1,9.873048284E-1
1.896518085E0,-4.076318741E-1,7.837500572E-1,-4.548687935E-1,9.936465751E-1
1.901534387E0,-4.033412933E-1,6.422204971E-1,-6.590024233E-1,1.004696750E0
1.906550690E0,-3.890132904E-1,4.513740540E-1,-7.839789391E-1,9.847298379E-1
1.911566992E0,-4.461541176E-1,2.396235466E-1,-8.591206074E-1,9.972768717E-1
1.916583294E0,-4.673776627E-1,3.541517258E-2,-8.416785002E-1,9.633892316E-1
1.921599596E0,-5.220832825E-1,-1.756443977E-1,-7.724308968E-1,9.487209276E-1
1.926615898E0,-5.670914650E-1,-3.408875465E-1,-6.705389023E-1,9.420294414E-1
1.931632200E0,-6.143980026E-1,-4.771313667E-1,-5.263066292E-1,9.392219731E-1
1.936648502E0,-6.446485519E-1,-5.508656502E-1,-4.142078161E-1,9.437122628E-1
1.941664752E0,-6.432857513E-1,-5.619263649E-1,-3.123704195E-1,9.094795635E-1
1.946681054E0,-6.291584969E-1,-5.651326180E-1,-2.305907011E-1,8.765770710E-1
1.951697356E0,-6.188707352E-1,-5.006942749E-1,-1.689684391E-1,8.137850313E-1
1.956713658E0,-6.649680138E-1,-4.237227440E-1,-1.155095100E-1,7.969102020E-1
1.961729960E0,-7.842879295E-1,-2.843194008E-1,-5.811822414E-2,8.362552278E-1
1.966746262E0,-9.359598160E-1,-1.494250298E-1,-1.356482506E-2,9.479096060E-1
1.971762565E0,-1.062877655E0,-2.168321609E-2,1.339960098E-2,1.063183249E0
1.976778867E0,-1.210506439E0,1.419482231E-1,2.549767494E-2,1.219067377E0
1.981795169E0,-1.290985584E0,2.550048828E-1,1.868724823E-3,1.315931138E0
1.986811471E0,-1.405120850E0,4.152984619E-1,-9.272658825E-2,1.468140196E0
1.991827773E0,-1.426291943E0,5.725541115E-1,-3.129155636E-1,1.568452443E0
1.996844023E0,-1.397490501E0,7.389950752E-1,-5.888645649E-1,1.686966182E0
2.001860325E0,-1.244374275E0,9.459333420E-1,-8.996391296E-1,1.803498763E0
2.006876627E0,-1.040842533E0,1.160217762E0,-1.204833627E0,1.970046320E0
2.011892929E0,-7.985806465E-1,1.322327614E0,-1.500572801E0,2.153601657E0
2.016909231E0,-6.181755066E-1,1.362833500E0,-1.789860845E0,2.333036208E0
2.021925533E0,-5.119271278E-1,1.264717579E0,-2.006288528E0,2.426267421E0
2.026941835E0,-4.465203285E-1,1.125799179E0,-2.191289663E0,2.503708167E0
2.031958137E0,-4.006285667E-1,9.243559837E-1,-2.268797874E0,2.482414355E0
2.036974440E0,-3.746132851E-1,7.271213531E-1,-2.185951948E0,2.333972257E0
2.041990742E0,-3.276062012E-1,6.107468605E-1,-2.064869404E0,2.178077869E0
2.047007044E0,-2.165975571E-1,4.772920609E-1,-1.852626801E0,1.925343677E0
2.052023294E0,-9.892988205E-2,3.484439850E-1,-1.573280096E0,1.614438166E0
2.057039596E0,-6.291580200E-2,1.909570694E-1,-1.202485561E0,1.219177807E0
2.062055898E0,-1.297903061E-2,1.199483871E-2,-8.141039610E-1,8.142957636E-1
2.067072200E0,3.921222687E-2,-1.855936050E-1,-4.793641567E-1,5.155313567E-1
2.072088502E0,1.395187378E-1,-2.746934891E-1,-2.292701006E-1,3.840400632E-1
2.077104804E0,2.666811943E-1,-2.000532150E-1,-8.160543442E-2,3.432194563E-1
2.082121106E0,3.949966431E-1,-3.061103821E-2,8.837509155E-2,4.059181451E-1
2.087137408E0,4.911217690E-1,2.217469215E-1,2.600659132E-1,5.983365009E-1
2.092153710E0,5.074663162E-1,4.756231308E-1,3.540669680E-1,7.804504100E-1
2.097170012E0,4.558172226E-1,6.805338860E-1,3.539825678E-1,8.923000441E-1
2.102186315E0,2.836360931E-1,8.769059181E-1,3.141939640E-1,9.737203241E-1
2.107202565E0,1.124014854E-1,1.040158749E0,2.463081479E-1,1.074817203E0
2.112218867E0,-1.227588654E-1,1.091001987E0,2.140101194E-1,1.118550583E0
2.117235169E0,-4.054012299E-1,1.041156292E0,2.265634537E-1,1.140038412E0
2.122251471E0,-6.210880280E-1,9.500637054E-1,2.446954846E-1,1.161140501E0
2.127267773E0,-8.751120567E-1,8.178272247E-1,2.782424092E-1,1.229667158E0
2.132284075E0,-1.078795433E0,7.570524216E-1,4.012727141E-1,1.377660243E0
2.137300377E0,-1.262964249E0,6.939473152E-1,3.486809134E-1,1.482639521E0
2.142316679E0,-1.389244556E0,6.454858780E-1,2.594804764E-1,1.553699641E0
2.147332981E0,-1.583914757E0,5.548572540E-1,3.604352474E-2,1.678675569E0
2.152349283E0,-1.743665218E0,5.612525940E-1,-1.825213432E-1,1.840838643E0
2.157365533E0,-1.880512238E0,5.857315063E-1,-4.292037487E-1,2.015843132E0
2.162381835E0,-2.013433933E0,6.069903374E-1,-6.681318283E-1,2.206525235E0
2.167398137E0,-2.121186256E0,5.913801193E-1,-8.226665258E-1,2.350732182E0
2.172414440E0,-2.203905106E0,5.126576424E-1,-8.786390424E-1,2.427348788E0
2.177430742E0,-2.307241440E0,3.994231224E-1,-8.218686581E-1,2.481606331E0
2.182447044E0,-2.307102680E0,3.304424286E-1,-6.500161290E-1,2.419594169E0
2.187463346E0,-2.196536541E0,2.817945480E-1,-4.038167596E-1,2.251055068E0
2.192479648E0,-1.994904041E0,2.415351868E-1,-3.784817457E-2,2.009829312E0
2.197495950E0,-1.743199825E0,2.643666267E-1,4.164608419E-1,1.811649794E0
2.202512252E0,-1.393661022E0,3.095583916E-1,6.833858490E-1,1.582761404E0
2.207528554E0,-1.090145111E0,3.957905769E-1,9.161815643E-1,1.477990258E0
2.212544856E0,-8.328595161E-1,4.556703568E-1,1.071678281E0,1.431706948E0
2.217561158E0,-6.406993866E-1,4.965686798E-1,1.059379339E0,1.333926813E0
2.222577408E0,-3.436851501E-1,5.402731895E-1,9.103082418E-1,1.112958084E0
2.227593710E0,4.626083374E-2,6.015014648E-1,7.016237378E-1,9.253215368E-1
2.232610012E0,2.635345459E-1,6.056876183E-1,5.682650208E-1,8.713398199E-1
2.237626315E0,1.383056641E-1,6.573081017E-1,7.563475966E-1,1.011555280E0
2.242642617E0,-1.847648621E-2,6.412425041E-1,7.309070230E-1,9.725011084E-1
2.247658919E0,-1.588935852E-1,6.103425026E-1,5.288374424E-1,8.230638993E-1
2.252675221E0,-1.775541306E-1,6.534957886E-1,3.039339781E-1,7.422655037E-1
2.257691523E0,-1.747713089E-1,6.180524826E-1,1.448438466E-1,6.584175131E-1
2.262707825E0,-1.428976059E-1,5.742025375E-1,-8.165240288E-4,5.917169480E-1
2.267724127E0,-8.890819550E-2,5.414676666E-1,-4.438054562E-2,5.505102488E-1
2.272740377E0,-1.127834320E-1,4.629969597E-1,-1.372160316E-1,4.958976976E-1
2.277756679E0,-1.159572601E-1,4.470415115E-1,-1.934842467E-1,5.007278232E-1
2.282772981E0,-9.840106964E-2,3.908815384E-1,-3.187907338E-1,5.139053216E-1
2.287789283E0,-1.102600098E-1,3.688077927E-1,-4.058127403E-1,5.593392869E-1
2.292805585E0,-2.284278870E-1,4.112000465E-1,-3.705486655E-1,5.988080588E-1
2.297821887E0,-4.675703049E-1,4.120035172E-1,-2.736234069E-1,6.806163802E-1
2.302838190E0,-7.777748108E-1,4.350800514E-1,-2.420289218E-1,9.234751250E-1
2.307854492E0,-1.051770210E0,4.415502548E-1,-1.976216435E-1,1.157688005E0
2.312870794E0,-1.260939598E0,4.315052032E-1,-2.241020799E-1,1.351438919E0
2.317887096E0,-1.281041145E0,4.602437019E-1,-1.797868907E-1,1.373030956E0
2.322903398E0,-1.269851685E0,4.230618477E-1,-1.963335574E-1,1.352793958E0
2.327919700E0,-1.253708839E0,3.560743332E-1,-3.011352718E-1,1.337631204E0
2.332935950E0,-1.162984848E0,2.694816589E-1,-3.201727271E-1,1.235987337E0
2.337952252E0,-1.071759224E0,2.281894684E-1,-3.960385919E-1,1.165154425E0
2.342968554E0,-9.965715408E-1,2.730932236E-1,-4.665168524E-1,1.133742792E0
2.347984856E0,-9.709854126E-1,3.847270012E-1,-6.297197938E-1,1.219579663E0
2.353001158E0,-9.736166000E-1,4.813747406E-1,-8.506292105E-1,1.379572752E0
2.358017460E0,-9.928083420E-1,6.150860786E-1,-1.033968568E0,1.559836622E0
2.363033762E0,-1.036014557E0,6.920995712E-1,-1.103651643E0,1.664444330E0
2.368050065E0,-1.048359871E0,7.744588852E-1,-1.074496150E0,1.689197135E0
2.373066367E0,-1.041868210E0,8.861083984E-1,-1.046174526E0,1.721963588E0
2.378082669E0,-9.950523376E-1,9.314918518E-1,-9.881441593E-1,1.683518668E0
2.383098971E0,-9.964523315E-1,9.178695679E-1,-9.404338598E-1,1.649186963E0
2.388115221E0,-1.012640953E0,9.120788574E-1,-8.712908626E-1,1.617552877E0
2.393131523E0,-1.010044098E0,8.641557693E-1,-7.256000638E-1,1.514413988E0
2.398147825E0,-9.529905319E-1,8.193550110E-1,-5.676316619E-1,1.379035638E0
2.403164127E0,-8.775081635E-1,7.321290970E-1,-4.499606192E-1,1.228209327E0
2.408180429E0,-8.408727646E-1,6.481676102E-1,-4.377164543E-1,1.148383190E0
2.413196731E0,-7.666177750E-1,5.745096207E-1,-4.342300594E-1,1.051817409E0
2.418213033E0,-7.407903671E-1,4.945087433E-1,-3.496157229E-1,9.568387633E-1
2.423229335E0,-6.247196198E-1,4.798746109E-1,-5.589999557E-1,9.659374700E-1
2.428245637E0,-5.380220413E-1,5.281581879E-1,-5.497851372E-1,9.331036842E-1
2.433261940E0,-4.066057205E-1,6.200578213E-1,-6.311043501E-1,9.737004747E-1
2.438278242E0,-2.521505356E-1,6.931967735E-1,-7.243058681E-1,1.033789461E0
2.443294544E0,-1.129636765E-1,7.236614227E-1,-8.107262254E-1,1.092576615E0
2.448310794E0,5.163574219E-2,7.403476238E-1,-9.221721292E-1,1.183715460E0
2.453327096E0,2.271280289E-1,7.214577198E-1,-9.195513129E-1,1.190656542E0
2.458343398E0,3.370122910E-1,6.980538368E-1,-8.721328974E-1,1.166821423E0
2.463359700E0,3.933563232E-1,6.366181374E-1,-7.410408258E-1,1.053163499E0
2.468376002E0,4.201641083E-1,5.777988434E-1,-5.976567268E-1,9.314413264E-1
2.473392304E0,4.486236572E-1,5.073800087E-1,-4.749187231E-1,8.271913035E-1
2.478408606E0,4.740324020E-1,5.020363331E-1,-3.559269607E-1,7.768083414E-1
2.483424908E0,5.489540100E-1,5.353453159E-1,-2.790931463E-1,8.159890298E-1
2.488441210E0,5.872917175E-1,5.522897243E-1,-2.082099169E-1,8.326384994E-1
2.493457512E0,6.631727219E-1,6.126241684E-1,-1.795423925E-1,9.205117606E-1
2.498473815E0,7.454175949E-1,7.113957405E-1,-1.623595655E-1,1.043116446E0
2.503490065E0,8.290147781E-1,7.283158302E-1,-1.901475191E-1,1.119761372E0
2.508506367E0,8.470230103E-1,6.754035950E-1,-1.488479972E-1,1.093514391E0
2.513522669E0,9.572849274E-1,6.028819084E-1,-1.192947924E-1,1.137581766E0
2.518538971E0,1.054472923E0,5.153329372E-1,1.045404673E-1,1.178308063E0
2.523555273E0,1.229457855E0,4.439446926E-1,1.207773089E-1,1.312722616E0
2.528571575E0,1.338836670E0,4.103951454E-1,1.908573508E-1,1.413270792E0
2.533587877E0,1.430451393E0,4.548552036E-1,1.974152327E-1,1.513954167E0
2.538604179E0,1.588083267E0,4.771885872E-1,1.597167850E-1,1.665901216E0
2.543620481E0,1.809246063E0,5.540566444E-1,1.108537316E-1,1.895425713E0
2.548636783E0,2.026892662E0,5.801334381E-1,6.488567591E-2,2.109279218E0
2.553653085E0,2.253067493E0,5.868527889E-1,6.981438398E-2,2.329288169E0
2.558669387E0,2.463837147E0,5.740799904E-1,1.183841825E-1,2.532602641E0
2.563685690E0,2.630572796E0,5.418136120E-1,2.297410965E-1,2.695599413E0
2.568701940E0,2.779631615E0,5.210527182E-1,2.698084712E-1,2.840887970E0
2.573718242E0,2.935017109E0,5.551823378E-1,2.934837937E-1,3.001447250E0
2.578734544E0,3.134998798E0,6.488319635E-1,2.489778399E-1,3.211104226E0
2.583750846E0,3.224120140E0,6.534491777E-1,1.934983134E-1,3.295358570E0
2.588767148E0,3.171531200E0,5.832424164E-1,2.278106809E-1,3.232751085E0
2.593783450E0,3.130403519E0,5.504142046E-1,3.133717179E-1,3.193835284E0
2.598799752E0,3.148495674E0,5.760537386E-1,4.288128018E-1,3.229356490E0
2.603816054E0,3.156362057E0,6.216260195E-1,5.256994367E-1,3.259662596E0
2.608832356E0,3.151599884E0,5.982493162E-1,6.397754550E-1,3.271054372E0
2.613848658E0,3.186799526E0,5.319604874E-1,7.805914879E-1,3.323852622E0
2.618864960E0,3.204452991E0,4.342467785E-1,8.707696199E-1,3.348929526E0
2.623881210E0,3.257265091E0,3.339166641E-1,9.826440215E-1,3.418605781E0
2.628897512E0,3.364292145E0,2.046937943E-1,1.024797082E0,3.522863926E0
2.633913815E0,3.465751171E0,7.298237085E-2,1.023744345E0,3.614527644E0
2.638930117E0,3.573723793E0,-2.282047272E-2,1.016229391E0,3.715473684E0
2.643946419E0,3.726512432E0,-8.004713058E-2,9.785231352E-1,3.853674866E0
2.648962721E0,3.900175095E0,-7.473689318E-2,1.003763080E0,4.027963715E0
2.653979023E0,4.037317276E0,-5.995309353E-2,1.060684681E0,4.174754742E0
2.658995325E0,4.126088619E0,-4.293829203E-2,1.089480877E0,4.267718310E0
2.664011627E0,4.240675926E0,-9.261906147E-3,1.054110527E0,4.369733069E0
2.669027929E0,4.381061077E0,6.251066923E-2,9.977176785E-1,4.493667134E0
2.674044231E0,4.516154766E0,1.365876198E-1,9.058817625E-1,4.608137565E0
2.679060533E0,4.564751148E0,1.338124275E-1,7.813264132E-1,4.633069153E0
2.684076835E0,4.531857967E0,4.968225956E-2,6.460606456E-1,4.577947064E0
2.689093085E0,4.448734283E0,-4.862105846E-2,4.955058694E-1,4.476508327E0
2.694109387E0,4.360939980E0,-1.969206929E-1,3.637491465E-1,4.380512379E0
2.699125690E0,4.213567734E0,-3.761044741E-1,3.133400679E-1,4.241908724E0
2.704141992E0,4.030647278E0,-5.836063027E-1,2.749472857E-1,4.081949265E0
2.709158294E0,3.874423027E0,-7.691935301E-1,2.538670897E-1,3.958189103E0
2.714174596E0,3.740012169E0,-9.541960955E-1,2.300777435E-1,3.866667426E0
2.719190898E0,3.613024235E0,-1.024216771E0,2.084285617E-1,3.761170906E0
2.724207200E0,3.428915977E0,-1.082101703E0,1.959052682E-1,3.600942620E0
2.729223502E0,3.273777962E0,-1.142118931E0,2.324897051E-1,3.475069677E0
2.734239804E0,3.133216381E0,-1.172879219E0,2.079764009E-1,3.352006076E0
2.739256106E0,2.973726273E0,-1.159976363E0,1.579464078E-1,3.195862978E0
2.744272408E0,2.890894890E0,-1.046167493E0,1.703618169E-1,3.079084740E0
2.749288658E0,2.791386604E0,-8.821233511E-1,1.331040263E-1,2.930477344E0
2.754304960E0,2.648915291E0,-7.350746989E-1,1.654465795E-1,2.753989761E0
2.759321262E0,2.494616032E0,-6.535782814E-1,2.176075578E-1,2.587977350E0
2.764337565E0,2.338020325E0,-6.666665077E-1,2.749147415E-1,2.446704189E0
2.769353867E0,2.300923347E0,-7.195504904E-1,3.457750380E-1,2.435479734E0
2.774370169E0,2.363940716E0,-8.313767314E-1,4.127638936E-1,2.539641118E0
2.779386471E0,2.438423157E0,-9.879319668E-1,4.084073603E-1,2.662463828E0
2.784402773E0,2.607966900E0,-1.184101343E0,3.825316727E-1,2.889622436E0
2.789419075E0,2.714666367E0,-1.386386156E0,3.855456710E-1,3.072478726E0
2.794435377E0,2.801610470E0,-1.582826614E0,4.051023424E-1,3.243218960E0
2.799451679E0,2.861711979E0,-1.737042665E0,4.278381169E-1,3.374871572E0
2.804467981E0,2.961930275E0,-1.899126291E0,4.638059139E-1,3.548919209E0
2.809484231E0,2.999410152E0,-2.033245802E0,4.870960712E-1,3.656201900E0
2.814500533E0,3.045908928E0,-2.129807472E0,5.427523851E-1,3.756091215E0
2.819516835E0,3.039280415E0,-2.219496965E0,5.426658392E-1,3.802351697E0
2.824533137E0,3.022617340E0,-2.266099930E0,5.727423429E-1,3.820923745E0
2.829549440E0,2.955333710E0,-2.290673018E0,6.141172647E-1,3.789237420E0
2.834565742E0,2.844731331E0,-2.252041101E0,6.338837147E-1,3.683204316E0
2.839582044E0,2.655104637E0,-2.157024860E0,6.094030142E-1,3.474724294E0
2.844598346E0,2.448804855E0,-1.983496904E0,5.293557644E-1,3.195484739E0
2.849614648E0,2.254594326E0,-1.685868979E0,4.067332745E-1,2.844429951E0
2.854630950E0,2.108335018E0,-1.321501613E0,2.685946822E-1,2.502715758E0
2.859647200E0,2.014757633E0,-9.139213562E-1,1.313818693E-1,2.216249481E0
2.864663502E0,1.988076210E0,-5.566496253E-1,-3.574050963E-2,2.064844596E0
2.869679804E0,1.922975063E0,-2.614786625E-1,-1.336418837E-1,1.945267164E0
2.874696106E0,1.857641697E0,-2.649307251E-3,-2.399465442E-1,1.873076090E0
2.879712408E0,1.808698654E0,1.763010025E-1,-3.024282455E-1,1.842263746E0
2.884728710E0,1.694777012E0,3.014239073E-1,-3.310642242E-1,1.752920139E0
2.889745012E0,1.642597675E0,3.845571280E-1,-3.118200302E-1,1.715588249E0
2.894761315E0,1.565882683E0,4.323028326E-1,-2.736475170E-1,1.647348560E0
2.899777617E0,1.368968010E0,4.084169865E-1,-2.016020119E-1,1.442747801E0
2.904793919E0,1.157106400E0,3.700392246E-1,-1.482568383E-1,1.223848168E0
2.909810221E0,1.009089470E0,3.050227165E-1,-6.370354444E-2,1.056105372E0
2.914826523E0,8.865079880E-1,2.349663973E-1,-3.896098956E-2,9.179453030E-1
2.919842773E0,7.510204315E-1,1.503663063E-1,-5.438650399E-2,7.678538965E-1
2.924859075E0,6.575508118E-1,4.648661613E-2,-3.572205454E-2,6.601591783E-1
2.929875377E0,5.678167343E-1,-1.162672043E-2,-1.154370606E-2,5.680530623E-1
2.934891679E0,5.248508453E-1,-8.579492569E-2,3.520821780E-2,5.329810482E-1
2.939907981E0,5.645027161E-1,-1.108689308E-1,2.077980340E-2,5.756622590E-1
2.944924283E0,6.771898270E-1,-1.173536777E-1,-3.365503252E-2,6.881065387E-1
2.949940585E0,7.816352844E-1,-1.262865067E-1,-5.885580182E-2,7.939559213E-1
2.954956887E0,9.114704132E-1,-1.131463051E-1,-7.189238071E-2,9.212756997E-1
2.959973190E0,1.016546249E0,-9.443211555E-2,-9.200075269E-2,1.025059920E0
2.964989492E0,1.049166679E0,-6.050848961E-2,-1.461490989E-1,1.061023825E0
2.970005794E0,1.040620804E0,-6.334304810E-3,-2.292153835E-1,1.065585038E0
2.975022044E0,1.022058487E0,9.667062759E-2,-2.765778005E-1,1.063223420E0
2.980038346E0,9.552621841E-1,1.933555603E-1,-3.149140477E-1,1.024247563E0
2.985054648E0,8.905315399E-1,2.907941341E-1,-4.047045112E-1,1.020486841E0
2.990070950E0,9.139280319E-1,4.056365490E-1,-6.226961613E-1,1.177945655E0
2.995087252E0,8.006029129E-1,5.208482742E-1,-8.975936770E-1,1.310695372E0
3.000103554E0,7.635278702E-1,6.579146385E-1,-1.212646008E0,1.576812233E0
3.005119856E0,6.879072189E-1,8.168611526E-1,-1.379170179E0,1.744301828E0
3.010136158E0,6.454496384E-1,9.712023735E-1,-1.425628304E0,1.841807631E0
3.015152460E0,5.595521927E-1,1.104113817E0,-1.387403488E0,1.859315577E0
3.020168762E0,4.350481033E-1,1.220444679E0,-1.330885887E0,1.857420069E0
3.025185065E0,2.862920761E-1,1.365509987E0,-1.244023919E0,1.869271566E0
3.030201367E0,1.108779907E-1,1.448404074E0,-1.169320822E0,1.864800116E0
3.035217617E0,-1.175794601E-1,1.516658783E0,-1.080652237E0,1.865981793E0
3.040233919E0,-4.326438904E-1,1.562659979E0,-1.059608221E0,1.936970967E0
3.045250221E0,-6.860847473E-1,1.588671446E0,-1.084484577E0,2.042228205E0
3.050266523E0,-9.186954498E-1,1.618560076E0,-1.057175875E0,2.140410913E0
3.055282825E0,-1.089876175E0,1.685846090E0,-1.013689399E0,2.248882681E0
3.060299127E0,-1.235698700E0,1.723464489E0,-9.510476589E-1,2.324171416E0
3.065315429E0,-1.372941017E0,1.717331886E0,-8.924236298E-1,2.372891860E0
3.070331731E0,-1.427550316E0,1.720198154E0,-8.421307206E-1,2.388758202E0
3.075348033E0,-1.454571724E0,1.705938339E0,-7.836151719E-1,2.374880472E0
3.080364335E0,-1.391936302E0,1.691371918E0,-7.332537174E-1,2.309953819E0
3.085380637E0,-1.337697029E0,1.660005569E0,-6.767404675E-1,2.236745290E0
3.090396940E0,-1.222431183E0,1.633655548E0,-6.209965348E-1,2.132792804E0
3.095413190E0,-1.084197998E0,1.641361237E0,-6.411479115E-1,2.068966566E0
3.100429492E0,-8.917160034E-1,1.673909187E0,-7.373343706E-1,2.034893455E0
3.105445794E0,-8.196754456E-1,1.661828518E0,-7.152111530E-1,1.986219739E0
3.110462096E0,-8.367300034E-1,1.693769455E0,-5.868491530E-1,1.978222433E0
3.115478398E0,-8.111944199E-1,1.772211075E0,-4.167324305E-1,1.993096686E0
3.120494700E0,-7.958221436E-1,1.899391174E0,-2.331265211E-1,2.072526886E0
3.125511002E0,-7.834157944E-1,2.039445400E0,-7.163894176E-2,2.185911706E0
3.130527304E0,-7.834873199E-1,2.249793053E0,1.060122848E-1,2.384671836E0
3.135543606E0,-8.343210220E-1,2.410623550E0,2.419515252E-1,2.562369608E0
3.140559908E0,-8.570184708E-1,2.562479973E0,3.143382072E-1,2.720219252E0
3.145576158E0,-9.332494736E-1,2.671477795E0,3.953884244E-1,2.857285459E0
3.150592512E0,-1.048721313E0,2.737361431E0,5.966506600E-1,2.991480571E0
3.155608762E0,-1.218283653E0,2.783235073E0,7.191498280E-1,3.122144937E0
3.160625065E0,-1.425920486E0,2.791692734E0,1.017897725E0,3.295893404E0
3.165641367E0,-1.525015831E0,2.739174843E0,9.245679379E-1,3.268574303E0
3.170657669E0,-1.460889816E0,2.630460739E0,7.840263247E-1,3.109376149E0
3.175673971E0,-1.365305424E0,2.491995335E0,7.280048728E-1,2.933273043E0
3.180690273E0,-1.345455170E0,2.338413715E0,6.496340632E-1,2.774968961E0
3.185706575E0,-1.400393486E0,2.158387184E0,4.465311766E-1,2.611345868E0
3.190722877E0,-1.469561577E0,2.009979248E0,3.166087866E-1,2.509953970E0
3.195739179E0,-1.568598270E0,1.879871368E0,2.901290655E-1,2.465480028E0
3.200755481E0,-1.598930836E0,1.783018112E0,2.886501551E-1,2.412271195E0
3.205771783E0,-1.694118977E0,1.698559284E0,3.734209538E-1,2.427876842E0
3.210788085E0,-1.861302376E0,1.622026443E0,5.467339754E-1,2.528702109E0
3.215804335E0,-2.110393524E0,1.560294151E0,7.025844455E-1,2.716965875E0
3.220820637E0,-2.381785393E0,1.465548038E0,8.692702651E-1,2.928542898E0
3.225836940E0,-2.659153461E0,1.442761898E0,9.861736298E-1,3.182011542E0
3.230853242E0,-2.895015240E0,1.410293579E0,1.054188967E0,3.388414909E0
3.235869544E0,-3.106243610E0,1.391938686E0,9.372068048E-1,3.530523937E0
3.240885846E0,-3.257201195E0,1.428005219E0,7.881657481E-1,3.642768696E0
3.245902148E0,-3.381328583E0,1.425032616E0,5.414692163E-1,3.709082077E0
3.250918450E0,-3.509826660E0,1.437688828E0,2.391055822E-1,3.800395220E0
3.255934752E0,-3.637341022E0,1.423226357E0,-7.926499844E-2,3.906674534E0
3.260951054E0,-3.770735264E0,1.400885582E0,-3.738129139E-1,4.039883778E0
3.265967356E0,-3.744384289E0,1.368746281E0,-5.950247049E-1,4.030872670E0
3.270983606E0,-3.665213108E0,1.325092316E0,-7.770181894E-1,3.974092857E0
3.275999908E0,-3.568273067E0,1.210772038E0,-8.870477676E-1,3.871097435E0
3.281016210E0,-3.491333961E0,1.066806793E0,-9.255719185E-1,3.766188118E0
3.286032512E0,-3.563070297E0,8.383798599E-1,-9.386218786E-1,3.778804277E0
3.291048815E0,-3.740291119E0,5.757532120E-1,-8.970808983E-1,3.889218887E0
3.296065117E0,-3.901184082E0,2.882995605E-1,-7.958446741E-1,3.991957242E0
3.301081419E0,-4.139245510E0,2.375221252E-2,-7.513285875E-1,4.206948087E0
3.306097721E0,-4.294522285E0,-1.941566467E-1,-6.501641273E-1,4.347796207E0
3.311114023E0,-4.458397865E0,-3.921141624E-1,-5.158808231E-1,4.505241177E0
3.316130325E0,-4.597721577E0,-5.584187508E-1,-4.580249786E-1,4.654101640E0
3.321146627E0,-4.746226788E0,-6.837139130E-1,-3.709799051E-1,4.809548786E0
3.326162929E0,-4.770121098E0,-7.369923592E-1,-2.137999535E-1,4.831451484E0
3.331179231E0,-4.753300667E0,-7.231993675E-1,-1.468141079E-1,4.810243127E0
3.336195481E0,-4.657712936E0,-7.261052132E-1,-1.191629171E-1,4.715476474E0
3.341211783E0,-4.425786495E0,-6.522183418E-1,-1.501975060E-1,4.476107031E0
3.346228085E0,-4.079073906E0,-5.398983955E-1,-2.524813414E-1,4.122387783E0
3.351244387E0,-3.679858685E0,-4.346356392E-1,-4.094848633E-1,3.727994894E0
3.356260690E0,-3.218706608E0,-3.342380524E-1,-5.932393074E-1,3.289942276E0
3.361276992E0,-2.794021130E0,-2.534742355E-1,-7.733715773E-1,2.910138632E0
3.366293294E0,-2.398894310E0,-1.951098442E-1,-9.504346848E-1,2.587680013E0
3.371309596E0,-2.062397957E0,-1.405138969E-1,-1.108305454E0,2.345542681E0
3.376325898E0,-1.707982063E0,-1.184425354E-1,-1.177947044E0,2.078170013E0
3.381342200E0,-1.419810772E0,-3.120136261E-2,-1.185536265E0,1.849954699E0
3.386358502E0,-1.131101608E0,6.590652466E-2,-1.167028069E0,1.626557418E0
3.391374804E0,-9.330716133E-1,1.630578041E-1,-1.117269039E0,1.464752740E0
3.396391106E0,-8.116025925E-1,2.552900314E-1,-1.026090741E0,1.332941851E0
3.401407356E0,-7.813296318E-1,4.020833969E-1,-9.242074490E-1,1.275267211E0
3.406423658E0,-8.137254715E-1,5.170826912E-1,-8.328320980E-1,1.274022353E0
3.411439960E0,-9.158482552E-1,6.266989708E-1,-7.182662487E-1,1.321906211E0
3.416456262E0,-9.740366936E-1,7.221217155E-1,-6.853290796E-1,1.392796898E0
3.421472565E0,-8.743929863E-1,7.817306519E-1,-7.789149284E-1,1.407968172E0
3.426488867E0,-1.076607227E0,8.603134155E-1,-5.842653513E-1,1.496859478E0
3.431505169E0,-1.317016125E0,9.603457451E-1,-5.757423639E-1,1.728662689E0
3.436521471E0,-1.523444176E0,1.082067966E0,-6.676348448E-1,1.984310844E0
3.441537773E0,-1.669307232E0,1.235245228E0,-7.957717180E-1,2.223886246E0
3.446554075E0,-1.859418392E0,1.386749268E0,-9.820990562E-1,2.518934069E0
3.451570377E0,-2.038570881E0,1.522319317E0,-1.141007304E0,2.788391114E0
3.456586679E0,-2.228284359E0,1.591669559E0,-1.287586212E0,3.025977763E0
3.461602981E0,-2.526576519E0,1.628245354E0,-1.489466310E0,3.354591141E0
3.466619283E0,-2.840586662E0,1.612519741E0,-1.521571159E0,3.603377762E0
3.471635533E0,-3.170896530E0,1.544005871E0,-1.458040237E0,3.816335974E0
3.476651835E0,-3.395557880E0,1.446738243E0,-1.282195926E0,3.907286943E0
3.481668137E0,-3.428811073E0,1.378142834E0,-1.005447865E0,3.829745221E0
3.486684440E0,-3.340172291E0,1.328810692E0,-7.231749296E-1,3.666806617E0
3.491700742E0,-3.136947632E0,1.262978554E0,-3.657428026E-1,3.401370763E0
3.496717044E0,-2.809659004E0,1.166456699E0,1.428496838E-2,3.042204630E0
3.501733346E0,-2.456256866E0,1.132901669E0,3.384749889E-1,2.726028118E0
3.506749648E0,-1.976203918E0,1.179152012E0,6.522800922E-1,2.391913609E0
3.511765950E0,-1.458014488E0,1.228748798E0,8.863871098E-1,2.102691600E0
3.516782252E0,-1.004654408E0,1.267196178E0,1.047812939E0,1.926922050E0
3.521798554E0,-5.777235031E-1,1.249100685E0,1.102733970E0,1.763530316E0
3.526814856E0,-1.916160583E-1,1.181558132E0,1.074595213E0,1.608586710E0
3.531831158E0,2.087249756E-1,1.098094940E0,1.006056905E0,1.503838126E0
3.536847460E0,4.822983742E-1,1.077755451E0,7.942996025E-1,1.423053194E0
3.541863762E0,7.683367729E-1,1.118626595E0,5.306515694E-1,1.457140330E0
3.546880065E0,1.066755772E0,1.172917843E0,2.639802694E-1,1.607292669E0
3.551896315E0,1.186821938E0,1.227071762E0,5.012059212E-2,1.707853476E0
3.556912617E0,1.212450027E0,1.259730339E0,-1.027590036E-1,1.751432274E0
3.561928919E0,1.208620071E0,1.240322113E0,-2.299302220E-1,1.747005818E0
3.566945221E0,1.103456020E0,1.223897934E0,-1.979918480E-1,1.659741580E0
3.571961523E0,8.920264244E-1,1.248409748E0,-5.905008316E-2,1.535488506E0
3.576977825E0,5.167527199E-1,1.258366585E0,6.244701147E-2,1.361770709E0
3.581994127E0,1.183176041E-1,1.200377941E0,1.756486297E-1,1.218917019E0
3.587010429E0,-3.034243584E-1,1.191452980E0,1.970864832E-1,1.245178552E0
3.592026731E0,-6.963310242E-1,1.211724281E0,2.296143025E-1,1.416289291E0
3.597043033E0,-1.043749332E0,1.268181324E0,1.864912659E-1,1.653020124E0
3.602059335E0,-1.281117439E0,1.262807369E0,1.584023833E-1,1.805833785E0
3.607075637E0,-1.348603249E0,1.229402542E0,8.967325091E-2,1.827074882E0
3.612091940E0,-1.258021355E0,1.228275299E0,1.108819246E-2,1.758238006E0
3.617108242E0,-1.081007957E0,1.166552544E0,5.819317698E-2,1.591480282E0
3.622124544E0,-9.347658157E-1,1.104153633E0,1.148134768E-1,1.451249293E0
3.627140846E0,-7.832527161E-1,1.062789440E0,1.655394137E-1,1.330567364E0
3.632157148E0,-6.742887497E-1,1.018601418E0,2.844409347E-1,1.254241130E0
3.637173450E0,-6.005630493E-1,9.909405708E-1,3.639831841E-1,1.214546397E0
3.642189700E0,-5.525741577E-1,1.017946720E0,4.423514605E-1,1.239850208E0
3.647206002E0,-6.140279770E-1,1.066065788E0,4.380895793E-1,1.305928444E0
3.652222304E0,-6.986751556E-1,1.173674107E0,4.566325545E-1,1.440198310E0
3.657238606E0,-7.469606400E-1,1.266260624E0,4.305299222E-1,1.531901491E0
3.662254908E0,-8.429059982E-1,1.317161083E0,3.908649683E-1,1.611886865E0
3.667271210E0,-9.436483383E-1,1.345253468E0,3.953325450E-1,1.690108547E0
3.672287512E0,-1.080479622E0,1.402851582E0,2.836710215E-1,1.793292509E0
3.677303815E0,-1.205592155E0,1.518574715E0,9.025327116E-2,1.941047980E0
3.682320117E0,-1.316698074E0,1.651589870E0,-1.032618135E-1,2.114735426E0
3.687336419E0,-1.471349716E0,1.756200314E0,-2.793940902E-1,2.308066417E0
3.692352721E0,-1.552178383E0,1.844682693E0,-4.797248244E-1,2.458098427E0
3.697369023E0,-1.415552139E0,1.929557323E0,-7.650260329E-1,2.512417990E0
3.702385325E0,-1.219553947E0,1.960721493E0,-8.674910069E-1,2.466633586E0
3.707401627E0,-9.620065689E-1,1.930900097E0,-9.071208835E-1,2.340235057E0
3.712417929E0,-7.050685883E-1,1.818921566E0,-9.181639552E-1,2.156066424E0
3.717434231E0,-4.654588699E-1,1.739814758E0,-8.763644695E-1,2.002903402E0
3.722450533E0,-2.241516113E-1,1.667087078E0,-7.807175517E-1,1.854438774E0
3.727466835E0,-3.148365021E-2,1.557512283E0,-6.573529243E-1,1.690842571E0
3.732483137E0,1.603631973E-1,1.368023396E0,-5.201779008E-1,1.472341473E0
3.737499440E0,2.675304413E-1,1.182036161E0,-2.917418480E-1,1.246553380E0
3.742515690E0,3.810606003E-1,1.014066219E0,-5.789470673E-2,1.084845277E0
3.747531992E0,4.673852921E-1,8.853578568E-1,1.178728044E-1,1.008068224E0
3.752548294E0,6.032886505E-1,8.561828136E-1,1.931031942E-1,1.065032887E0
3.757564596E0,7.430925369E-1,8.900423050E-1,1.923004985E-1,1.175304771E0
3.762580898E0,8.532428741E-1,9.292635918E-1,1.535967886E-1,1.270884023E0
3.767597200E0,9.983015060E-1,9.188041687E-1,7.152488828E-2,1.358647418E0
3.772613502E0,1.183011055E0,9.257264137E-1,-4.238992929E-2,1.502757950E0
3.777629804E0,1.402613640E0,9.860911369E-1,-8.768856525E-2,1.716796446E0
3.782646106E0,1.573436737E0,1.052242041E0,-1.149605513E-1,1.896347122E0
3.787662408E0,1.724121571E0,1.143064976E0,-1.343297958E-1,2.072977864E0
3.792678710E0,1.840300083E0,1.153180599E0,-1.886407435E-1,2.179934683E0
3.797695012E0,1.874083519E0,1.144699574E0,-1.739188135E-1,2.202901247E0
3.802711315E0,1.964162350E0,1.126806259E0,-1.947427094E-1,2.272784813E0
3.807727617E0,2.012354374E0,1.087272882E0,-1.364768147E-1,2.291366048E0
3.812743919E0,2.102401257E0,1.028375864E0,-6.564015150E-2,2.341357852E0
3.817760221E0,2.078833580E0,8.974230289E-1,-2.514177561E-2,2.264409251E0
3.822776523E0,2.140306950E0,7.687568665E-1,-5.305707455E-3,2.274187571E0
3.827792825E0,2.171885967E0,6.300795078E-1,-1.323544979E-2,2.261473860E0
3.832809127E0,2.240560532E0,5.410645008E-1,-2.974230051E-2,2.305156588E0
3.837825429E0,2.386862278E0,4.941587448E-1,-2.702057362E-3,2.437480605E0
3.842841731E0,2.581974030E0,4.149088860E-1,2.707022429E-2,2.615238435E0
3.847858033E0,2.837792397E0,3.582472801E-1,4.969459772E-2,2.860747516E0
3.852874335E0,3.077800751E0,3.265023232E-1,5.615162849E-2,3.095579790E0
3.857890637E0,3.328355312E0,3.457953930E-1,1.063969135E-1,3.347961147E0
3.862906940E0,3.620569229E0,4.088270664E-1,4.505026340E-2,3.643856561E0
3.867923242E0,3.818159580E0,4.245966673E-1,-7.950544357E-3,3.841703804E0
3.872939544E0,3.992995262E0,3.786557913E-1,-4.081368446E-2,4.011116693E0
3.877955846E0,4.102022171E0,2.728226185E-1,6.053626537E-3,4.111089238E0
3.882972148E0,4.183627605E0,7.100832462E-2,1.233094931E-1,4.186046745E0
3.887988450E0,4.340678692E0,-1.481406689E-1,3.060182929E-1,4.353973399E0
3.893004752E0,4.489423275E0,-3.894801140E-1,4.674976468E-1,4.530471295E0
3.898021054E0,4.641889572E0,-5.766374469E-1,5.911443830E-1,4.714774780E0
3.903037356E0,4.819682598E0,-7.358779907E-1,6.579813957E-1,4.919735387E0
3.908053658E0,5.037197590E0,-8.885467649E-1,6.823012829E-1,5.160272275E0
3.913069908E0,5.215532780E0,-1.008637905E0,7.050668001E-1,5.358754687E0
3.918086210E0,5.338073730E0,-1.117676735E0,7.694338560E-1,5.507836317E0
3.923102565E0,5.474271774E0,-1.196745396E0,8.107575178E-1,5.661905929E0
3.928118815E0,5.578763485E0,-1.279272318E0,9.058644772E-1,5.794801993E0
3.933135117E0,5.651660919E0,-1.329306006E0,9.927225709E-1,5.890146323E0
3.938151471E0,5.671510696E0,-1.392440915E0,1.030500531E0,5.930164975E0
3.943167721E0,5.664752960E0,-1.475811481E0,1.067496538E0,5.950377676E0
3.948184023E0,5.662538528E0,-1.538866997E0,1.067870736E0,5.964293934E0
3.953200325E0,5.629006863E0,-1.634097219E0,1.059887648E0,5.956454802E0
3.958216627E0,5.564223766E0,-1.701814413E0,1.022103071E0,5.907745180E0
3.963232929E0,5.482606888E0,-1.756332278E0,1.047827363E0,5.851634262E0
3.968249231E0,5.341133595E0,-1.826705933E0,9.646633863E-1,5.726703946E0
3.973265533E0,5.216424465E0,-1.919778824E0,8.612199426E-1,5.624796416E0
3.978281835E0,5.065443516E0,-1.987289071E0,6.799814105E-1,5.483649385E0
3.983298137E0,4.895408154E0,-2.055581570E0,4.043959975E-1,5.324844852E0
3.988314440E0,4.656125546E0,-2.105439901E0,1.778521538E-1,5.113121714E0
3.993330742E0,4.371628284E0,-2.136819124E0,4.389399290E-2,4.866113080E0
3.998347044E0,4.065877438E0,-2.178637505E0,-7.154160738E-2,4.613343572E0
4.003363346E0,3.712619305E0,-2.178154707E0,-1.009603441E-1,4.305588580E0
4.008379648E0,3.371650696E0,-2.212085724E0,-1.260685921E-1,4.034506780E0
4.013395950E0,3.066820145E0,-2.153834820E0,-1.615815163E-1,3.751066357E0
4.018412252E0,2.774109364E0,-2.008252859E0,-2.204772085E-1,3.431817668E0
4.023428554E0,2.591506481E0,-1.772854090E0,-3.056841493E-1,3.154736164E0
4.028444856E0,2.487738609E0,-1.519575000E0,-4.680987000E-1,2.952468114E0
4.033461158E0,2.400505543E0,-1.277029753E0,-6.509495974E-1,2.795883980E0
4.038477460E0,2.356049538E0,-1.052381516E0,-8.812974691E-1,2.726749256E0
4.043493762E0,2.356680393E0,-8.339820504E-1,-9.557311535E-1,2.676357707E0
4.048510065E0,2.359286308E0,-7.270255089E-1,-8.719129562E-1,2.618211255E0
4.053526367E0,2.437932014E0,-6.265178323E-1,-7.019525766E-1,2.613192400E0
4.058542669E0,2.484896660E0,-6.088850498E-1,-4.960399270E-1,2.606052191E0
4.063558971E0,2.600611687E0,-6.142429709E-1,-3.853718638E-1,2.699812409E0
4.068575273E0,2.777742863E0,-5.974180698E-1,-2.815193534E-1,2.855173709E0
4.073591575E0,3.013772488E0,-5.868739486E-1,-3.309645951E-1,3.088168260E0
4.078607877E0,3.291840553E0,-5.848602057E-1,-4.522433877E-1,3.373840508E0
4.083624179E0,3.609495163E0,-5.883069634E-1,-5.692586899E-1,3.701164124E0
4.088640481E0,3.825567245E0,-6.733909845E-1,-8.193159103E-1,3.969848704E0
4.093656783E0,3.837360859E0,-7.749373913E-1,-1.085425258E0,4.062513300E0
4.098673085E0,3.683396816E0,-9.546999335E-1,-1.357190609E0,4.039904754E0
4.103689387E0,3.383055687E0,-1.102220893E0,-1.489010453E0,3.857085533E0
4.108705690E0,3.029881477E0,-1.173923135E0,-1.494822860E0,3.576698572E0
4.113721992E0,2.750792503E0,-1.090583920E0,-1.347241163E0,3.251352247E0
4.118738294E0,2.349750519E0,-9.451586008E-1,-1.048661113E0,2.741230091E0
4.123754596E0,2.113907337E0,-7.015456557E-1,-6.792681813E-1,2.328556591E0
4.128770898E0,1.956917763E0,-4.269478321E-1,-3.230998516E-1,2.028843290E0
4.133787200E0,1.842594624E0,-2.131546736E-1,-5.526827276E-2,1.855705915E0
4.138803502E0,1.717986584E0,-6.581234932E-2,1.142668203E-1,1.723039777E0
4.143819804E0,1.601971149E0,5.259931087E-2,2.336686254E-1,1.619777540E0
4.148836106E0,1.508650780E0,7.448804379E-2,2.822712362E-1,1.536636813E0
4.153852408E0,1.516875267E0,1.222664118E-1,3.689133525E-1,1.565872508E0
4.158868710E0,1.545125008E0,1.431992054E-1,3.300408125E-1,1.586456504E0
4.163885012E0,1.602925777E0,1.495552063E-1,4.002320468E-1,1.658892251E0
4.168901315E0,1.651961327E0,1.583132744E-1,5.294812322E-1,1.741949968E0
4.173917617E0,1.699487686E0,1.772751808E-1,7.162126303E-1,1.852739976E0
4.178933919E0,1.774210453E0,1.565287113E-1,8.578192592E-1,1.976911189E0
4.183950221E0,1.868974209E0,1.587364674E-1,8.494600058E-1,2.059088187E0
4.188966523E0,1.926396847E0,1.338975430E-1,6.931607723E-1,2.051683509E0
4.193982825E0,1.999236107E0,1.447100639E-1,5.085414648E-1,2.067970124E0
4.198999127E0,2.044435978E0,1.840794086E-1,3.437933922E-1,2.081297094E0
4.204015429E0,2.052585602E0,2.213611603E-1,2.659619451E-1,2.081548503E0
4.209031731E0,2.042869568E0,2.589402199E-1,2.170556039E-1,2.070622912E0
4.214048033E0,1.962814331E0,2.851772308E-1,2.064492851E-1,1.994138275E0
4.219064335E0,1.865140915E0,3.169295788E-1,1.817982793E-1,1.900590857E0
4.224080637E0,1.805180550E0,4.218721390E-1,2.092680633E-1,1.865595358E0
4.229096940E0,1.752045155E0,5.310637951E-1,1.999954879E-1,1.841653923E0
4.234113242E0,1.607703686E0,6.875336170E-1,2.504295409E-1,1.766388567E0
4.239129544E0,1.436960697E0,8.219478130E-1,2.879867852E-1,1.680294808E0
4.244145846E0,1.208960533E0,1.018325806E0,3.340726495E-1,1.615604392E0
4.249162148E0,9.309988022E-1,1.209490776E0,3.547231257E-1,1.566989216E0
4.254178502E0,5.935602188E-1,1.428656578E0,3.377054036E-1,1.583482962E0
4.259194752E0,2.947206497E-1,1.608485222E0,2.968150675E-1,1.661981996E0
4.264211054E0,-1.094532013E-2,1.832593918E0,1.717935205E-1,1.840661099E0
4.269227356E0,-3.284959793E-1,2.021289825E0,6.097817421E-2,2.048716795E0
4.274243710E0,-5.887575150E-1,2.246020794E0,3.437989950E-2,2.322159942E0
4.279259960E0,-7.872543335E-1,2.448903084E0,6.842488050E-2,2.573242636E0
4.284276315E0,-9.146976471E-1,2.574580193E0,1.484620571E-2,2.732280250E0
4.289292617E0,-1.016647339E0,2.666233540E0,-3.726357222E-2,2.853727680E0
4.294308919E0,-1.078992844E0,2.757192612E0,-6.071001291E-2,2.961422354E0
4.299325221E0,-1.178259850E0,2.799756527E0,-9.626150131E-2,3.039111574E0
4.304341523E0,-1.283461571E0,2.810554981E0,-9.347146749E-2,3.091153477E0
4.309357825E0,-1.404253006E0,2.765563488E0,-3.581589460E-2,3.101862455E0
4.314374127E0,-1.600341797E0,2.698510170E0,-7.152581215E-2,3.138178922E0
4.319390429E0,-1.718674660E0,2.599902153E0,-1.066884995E-1,3.118447727E0
4.324406731E0,-1.792799950E0,2.524945736E0,-1.792613268E-1,3.101873184E0
4.329423033E0,-1.817870140E0,2.495486259E0,-2.170333266E-1,3.095029399E0
4.334439335E0,-1.801080704E0,2.504503727E0,-2.649960518E-1,3.096232150E0
4.339455637E0,-1.763895035E0,2.614379883E0,-3.205608130E-1,3.170026356E0
4.344471940E0,-1.749277115E0,2.734436989E0,-2.970982790E-1,3.259660022E0
4.349488242E0,-1.816826820E0,2.831417561E0,-2.259479761E-1,3.371770690E0
4.354504544E0,-1.971282005E0,2.948269844E0,-1.241346598E-1,3.548754321E0
4.359520846E0,-2.145602703E0,2.998832703E0,-3.975594044E-2,3.687572246E0
4.364537148E0,-2.418820858E0,3.009169102E0,6.247532368E-2,3.861307575E0
4.369553450E0,-2.704904556E0,2.983872890E0,1.561125517E-1,4.030431393E0
4.374569752E0,-2.980095387E0,2.898742199E0,1.688016653E-1,4.160789450E0
4.379586054E0,-3.187049389E0,2.784802914E0,9.521901608E-2,4.233376635E0
4.384602356E0,-3.391541004E0,2.648516178E0,-2.079582214E-2,4.303210522E0
4.389618658E0,-3.688688755E0,2.475804329E0,1.122690439E-1,4.443943760E0
4.394634960E0,-3.753033161E0,2.235797882E0,-3.432687521E-1,4.381995380E0
4.399651262E0,-3.735191345E0,1.952903271E0,-4.759007692E-1,4.241693897E0
4.404667565E0,-3.639026165E0,1.661348343E0,-7.738568783E-1,4.074486988E0
4.409683867E0,-3.477907658E0,1.428930759E0,-1.078349471E0,3.911588216E0
4.414700169E0,-3.255566120E0,1.189604282E0,-1.340014219E0,3.716114533E0
4.419716471E0,-3.026091099E0,9.849605560E-1,-1.575625062E0,3.551051812E0
4.424732773E0,-2.788932800E0,8.202648163E-1,-1.691400647E0,3.363304429E0
4.429749075E0,-2.524466515E0,6.913871765E-1,-1.693116307E0,3.117304964E0
4.434765377E0,-2.376224041E0,6.079125404E-1,-1.510160565E0,2.880379017E0
4.439781731E0,-2.387169361E0,5.435338020E-1,-1.227462530E0,2.738735258E0
4.444798033E0,-2.478359699E0,5.697331429E-1,-8.732726574E-1,2.688766964E0
4.449814335E0,-2.664371490E0,6.716585159E-1,-5.141485929E-1,2.795415779E0
4.454830637E0,-2.988774300E0,7.838573456E-1,-2.218129635E-1,3.097806505E0
4.459846940E0,-3.380033016E0,9.608712196E-1,5.418574810E-2,3.514375163E0
4.464863242E0,-3.814616680E0,1.146948814E0,2.487740517E-1,3.991075109E0
4.469879544E0,-4.367041111E0,1.262498856E0,3.517887592E-1,4.559463429E0
4.474895846E0,-4.879268169E0,1.451047421E0,4.874393940E-1,5.113745560E0
4.479912148E0,-5.329679489E0,1.573908806E0,6.675757170E-1,5.597171582E0
4.484928450E0,-5.720396996E0,1.664974213E0,8.205722570E-1,6.014018602E0
4.489944752E0,-5.969796658E0,1.626494884E0,8.910837770E-1,6.251238920E0
4.494961054E0,-6.185338974E0,1.501917839E0,7.931181788E-1,6.414297457E0
4.499977356E0,-6.290119648E0,1.306097031E0,5.844403505E-1,6.450818953E0
4.504993658E0,-6.279488564E0,1.067875385E0,2.895323038E-1,6.376218583E0
4.510009960E0,-6.179577827E0,7.541851997E-1,2.370214462E-2,6.225475021E0
4.515026262E0,-5.992735386E0,4.274239540E-1,-2.129647732E-1,6.011732083E0
4.520042565E0,-5.685400963E0,1.714348793E-1,-4.109904766E-1,5.702813972E0
4.525058867E0,-5.272090912E0,-8.562040329E-2,-5.105509758E-1,5.297446152E0
4.530075169E0,-4.819951057E0,-3.032164574E-1,-6.674138308E-1,4.875377897E0
4.535091471E0,-4.274085045E0,-4.720349312E-1,-8.079881668E-1,4.375324539E0
4.540107773E0,-3.689612389E0,-5.517354012E-1,-9.691469669E-1,3.854464603E0
4.545124127E0,-3.119475365E0,-6.266179085E-1,-1.135105014E0,3.378200697E0
4.550140429E0,-2.580475330E0,-6.013231277E-1,-1.230219841E0,2.921281105E0
4.555156731E0,-2.087243080E0,-5.194778442E-1,-1.243357182E0,2.484427094E0
4.560173033E0,-1.699343204E0,-3.427386284E-1,-1.181889057E0,2.098117927E0
4.565189335E0,-1.359505177E0,-1.167159081E-1,-1.059735775E0,1.727691188E0
4.570205637E0,-1.127428055E0,1.492176056E-1,-9.001160860E-1,1.450368533E0
4.575221940E0,-1.012704849E0,4.551787376E-1,-7.234739065E-1,1.325206885E0
4.580238242E0,-1.041532993E0,7.344808578E-1,-5.955181122E-1,1.406732003E0
4.585254544E0,-1.197469234E0,9.655327797E-1,-4.622606039E-1,1.606197678E0
4.590270846E0,-1.457090378E0,1.107239246E0,-3.830666542E-1,1.869714197E0
4.595287148E0,-1.765525818E0,1.128374577E0,-3.579783440E-1,2.125666741E0
4.600303450E0,-2.053804398E0,1.081143379E0,-4.018830061E-1,2.355524031E0
4.605319752E0,-2.321871281E0,9.871506691E-1,-5.127520561E-1,2.574581006E0
4.610336054E0,-2.419201374E0,9.778366089E-1,-6.262131929E-1,2.683438593E0
4.615352356E0,-2.479897499E0,1.043516636E0,-7.400976419E-1,2.790441380E0
4.620368658E0,-2.430080891E0,1.124151707E0,-8.471447229E-1,2.808320562E0
4.625384960E0,-2.401696205E0,1.174087048E0,-8.967568874E-1,2.819715938E0
4.630401262E0,-2.330061913E0,1.188533783E0,-8.610211611E-1,2.753753531E0
4.635417617E0,-2.167813778E0,1.174454689E0,-8.229895830E-1,2.599244553E0
4.640433919E0,-2.018010616E0,1.138960361E0,-5.887721777E-1,2.390868091E0
4.645450221E0,-1.969033241E0,1.139381886E0,-3.937151432E-1,2.308743078E0
4.650466523E0,-1.964071751E0,1.112906933E0,-3.607153893E-2,2.257751279E0
4.655482825E0,-2.067987919E0,1.071036816E0,2.708053589E-1,2.344574468E0
4.660499127E0,-2.089288712E0,1.035207748E0,5.190788507E-1,2.388770658E0
4.665515429E0,-2.101981163E0,1.055740356E0,5.815393329E-1,2.423035391E0
4.670531731E0,-2.103617191E0,1.092021465E0,5.829503536E-1,2.440808735E0
4.675548033E0,-2.067476749E0,1.137362957E0,5.210866332E-1,2.416523512E0
4.680564335E0,-2.036040783E0,1.178087711E0,4.341725111E-1,2.392040655E0
4.685580637E0,-1.891453266E0,1.253395557E0,3.228740692E-1,2.291908276E0
4.690596940E0,-1.645174980E0,1.364008904E0,1.608183384E-1,2.143124715E0
4.695613242E0,-1.392527103E0,1.419534683E0,-1.049153805E-1,1.991285436E0
4.700629544E0,-1.111721992E0,1.439424038E0,-3.889957666E-1,1.859888453E0
4.705645846E0,-9.632115364E-1,1.416298389E0,-7.158356905E-1,1.856366970E0
4.710662200E0,-9.115347862E-1,1.414118290E0,-8.657841682E-1,1.892143871E0
4.715678502E0,-9.260663986E-1,1.370048523E0,-7.435742617E-1,1.813155981E0
4.720694804E0,-9.569754601E-1,1.367419720E0,-4.829477668E-1,1.737491659E0
4.725711106E0,-8.707571030E-1,1.348474503E0,-1.262263060E-1,1.610134931E0
4.730727408E0,-9.043021202E-1,1.332385063E0,1.233187914E-1,1.614998392E0
4.735743710E0,-8.951792717E-1,1.335717201E0,3.102529049E-1,1.637602893E0
4.740760012E0,-8.935704231E-1,1.368273735E0,4.836215377E-1,1.704268437E0
4.745776315E0,-8.805079460E-1,1.422698021E0,5.604870319E-1,1.764513988E0
4.750792617E0,-9.899096489E-1,1.422515869E0,4.749422073E-1,1.796953703E0
4.755808919E0,-9.989814758E-1,1.382472038E0,3.564940393E-1,1.742492733E0
4.760825221E0,-9.120626450E-1,1.329636574E0,1.810728014E-1,1.622522433E0
4.765841523E0,-7.115497589E-1,1.306078911E0,-1.679817438E-1,1.496784235E0
4.770857825E0,-3.415908813E-1,1.344245434E0,-4.853007793E-1,1.469420622E0
4.775874127E0,2.596664429E-2,1.373166561E0,-6.348910928E-1,1.513058945E0
4.780890481E0,1.807241440E-1,1.433684826E0,-5.933130383E-1,1.562092749E0
4.785906783E0,1.462364197E-1,1.484338284E0,-5.528418422E-1,1.590685177E0
4.790923085E0,-3.491878510E-2,1.576867580E0,-5.209299326E-1,1.661053486E0
4.795939387E0,-2.605266571E-1,1.693448067E0,-4.449879229E-1,1.770213192E0
4.800955690E0,-5.238819122E-1,1.768770218E0,-3.324356973E-1,1.874436938E0
4.805971992E0,-7.513847351E-1,1.799621582E0,-2.507819533E-1,1.966242215E0
4.810988294E0,-9.122066498E-1,1.773831844E0,-1.277498305E-1,1.998729697E0
4.816004596E0,-9.850301743E-1,1.727227688E0,4.474136233E-2,1.988869458E0
4.821020898E0,-1.044193268E0,1.619031429E0,1.617274731E-1,1.933328251E0
4.826037200E0,-1.022538185E0,1.564444065E0,2.134507149E-1,1.881124871E0
4.831053502E0,-9.128093719E-1,1.489573479E0,1.157629043E-1,1.750842982E0
4.836069804E0,-7.341032028E-1,1.464058876E0,-2.332001925E-3,1.637797711E0
4.841086158E0,-6.225070953E-1,1.440498352E0,-2.213165462E-1,1.584781247E0
4.846102460E0,-4.489259720E-1,1.507259846E0,-3.857169747E-1,1.619303664E0
4.851118762E0,-3.068590164E-1,1.553988457E0,-4.145400226E-1,1.637341140E0
4.856135065E0,-2.801008224E-1,1.556571007E0,-4.518560767E-1,1.644853697E0
4.861151367E0,-2.322759628E-1,1.512616634E0,-4.094135165E-1,1.584165595E0
4.866167669E0,-3.116693497E-1,1.493985653E0,-3.588531017E-1,1.567771177E0
4.871183971E0,-2.910919189E-1,1.474183559E0,-3.788842857E-1,1.549678991E0
4.876200273E0,-4.143829346E-1,1.427441597E0,-4.348195791E-1,1.548667426E0
4.881216575E0,-4.732904434E-1,1.473571301E0,-5.718701482E-1,1.649985360E0
4.886232877E0,-4.200963974E-1,1.579030275E0,-7.712064981E-1,1.806814062E0
4.891249231E0,-3.411741257E-1,1.676573038E0,-9.417989850E-1,1.953018757E0
4.896265533E0,-1.699352264E-1,1.734401226E0,-9.837934971E-1,2.001218439E0
4.901281835E0,-3.577995300E-2,1.680444956E0,-8.931794763E-1,1.903403539E0
4.906298137E0,1.568489075E-1,1.619770527E0,-7.247152925E-1,1.781423699E0
4.911314440E0,3.097848892E-1,1.614403009E0,-5.525581241E-1,1.734238806E0
4.916330742E0,4.277563095E-1,1.592261791E0,-4.240008295E-1,1.702365935E0
4.921347044E0,5.466461182E-1,1.558038235E0,-4.008960128E-1,1.699124107E0
4.926363346E0,7.118568420E-1,1.533131599E0,-4.298213422E-1,1.744127017E0
4.931379648E0,8.850936890E-1,1.488812447E0,-4.511553347E-1,1.789830851E0
4.936395950E0,1.083085060E0,1.379594326E0,-5.201806426E-1,1.829464854E0
4.941412252E0,1.305846214E0,1.217579126E0,-5.288431048E-1,1.862097821E0
4.946428606E0,1.668290138E0,1.094205141E0,-4.870542586E-1,2.053703661E0
4.951444908E0,2.148771286E0,1.031098366E0,-4.016011357E-1,2.416953734E0
4.956461210E0,2.575101852E0,9.688630104E-1,-3.423024416E-1,2.772546852E0
4.961477512E0,2.999832630E0,8.855433464E-1,-2.825689316E-1,3.140545817E0
4.966493815E0,3.286627769E0,7.188296318E-1,-1.486496329E-1,3.367600755E0
4.971510117E0,3.610236645E0,6.267433167E-1,-1.126850396E-1,3.665966958E0
4.976526419E0,3.901249409E0,6.114497185E-1,-1.381619424E-1,3.951291742E0
4.981542721E0,4.123723507E0,5.455725193E-1,-1.489060074E-1,4.162321220E0
4.986559023E0,4.306399822E0,4.479854107E-1,-9.920755029E-2,4.330775046E0
4.991575377E0,4.451683521E0,2.800287008E-1,-1.721493900E-2,4.460515508E0
4.996591679E0,4.566827297E0,6.557893753E-2,1.596930623E-1,4.570089062E0
5.001607981E0,4.661407948E0,-1.073111296E-1,3.431119919E-1,4.675250322E0
5.006624283E0,4.723516464E0,-3.226535320E-1,5.283885002E-1,4.763917243E0
5.011640585E0,4.762773991E0,-4.515991211E-1,6.746161580E-1,4.831466114E0
5.016656887E0,4.772057056E0,-5.352254510E-1,8.008613586E-1,4.868302964E0
5.021673190E0,4.772955418E0,-5.738774538E-1,8.803699017E-1,4.887278375E0
5.026689492E0,4.822948456E0,-6.155408025E-1,9.351254702E-1,4.951179853E0
5.031705794E0,4.852655888E0,-6.392431259E-1,1.001127601E0,4.995914072E0
5.036722096E0,4.921947956E0,-6.784922481E-1,9.866601229E-1,5.065512966E0
5.041738398E0,5.045173645E0,-7.047942877E-1,9.535433054E-1,5.182639958E0
5.046754752E0,5.097984791E0,-7.591575980E-1,9.902376533E-1,5.248460707E0
5.051771054E0,5.207259655E0,-8.225752711E-1,9.982082248E-1,5.365501174E0
5.056787356E0,5.272582531E0,-9.119589329E-1,9.873444438E-1,5.441198829E0
5.061803658E0,5.365822315E0,-9.794363976E-1,1.045943379E0,5.553858328E0
5.066819960E0,5.448757648E0,-1.053851366E0,1.102324486E0,5.658151808E0
5.071836262E0,5.526258469E0,-1.118609190E0,1.111381531E0,5.746824174E0
5.076852565E0,5.631878376E0,-1.202178478E0,1.092002869E0,5.861378456E0
5.081868867E0,5.672405720E0,-1.335349798E0,1.053935289E0,5.922003489E0
5.086885169E0,5.717311859E0,-1.489405155E0,1.004323959E0,5.992883215E0
5.091901523E0,5.737946510E0,-1.680925488E0,9.455556870E-1,6.053397080E0
5.096917825E0,5.722440243E0,-1.890670776E0,8.064137697E-1,6.080399780E0
5.101934127E0,5.615885258E0,-2.082798243E0,6.256618500E-1,6.022264400E0
5.106950429E0,5.478208065E0,-2.295570850E0,4.324194491E-1,5.955450924E0
5.111966731E0,5.374020100E0,-2.471772671E0,2.290556729E-1,5.919646836E0
5.116983033E0,5.193315029E0,-2.637727261E0,5.902245641E-2,5.825084527E0
5.121999335E0,5.074875832E0,-2.786223412E0,-1.401158571E-1,5.791117168E0
5.127015637E0,4.870387554E0,-2.862476826E0,-3.173768222E-1,5.658195521E0
5.132031940E0,4.654080868E0,-2.861729622E0,-4.438526630E-1,5.481511684E0
5.137048294E0,4.478566647E0,-2.738192797E0,-4.554072917E-1,5.269027880E0
5.142064596E0,4.307887554E0,-2.601945400E0,-4.750932455E-1,5.055069598E0
5.147080898E0,4.177883625E0,-2.419448376E0,-5.102313757E-1,4.854768592E0
5.152097200E0,3.985656738E0,-2.214370728E0,-4.567533433E-1,4.582305203E0
5.157113502E0,3.824514389E0,-1.995980144E0,-4.021774232E-1,4.332735132E0
5.162129804E0,3.660921097E0,-1.797945380E0,-2.868121862E-1,4.088668744E0
5.167146106E0,3.442246437E0,-1.603621364E0,-1.924351752E-1,3.802327354E0
5.172162408E0,3.264185429E0,-1.410521507E0,-9.987057000E-2,3.557309597E0
5.177178710E0,3.169684410E0,-1.226082802E0,-1.420375705E-2,3.398585006E0
5.182195065E0,3.067722797E0,-1.067383409E0,-3.587488830E-2,3.248309947E0
5.187211367E0,3.063469410E0,-9.177361727E-1,-4.747552425E-2,3.198333696E0
5.192227669E0,3.113675117E0,-8.278408051E-1,-1.017333269E-1,3.223452001E0
5.197243971E0,3.218231678E0,-7.972873449E-1,-2.324431837E-1,3.323659441E0
5.202260273E0,3.350727081E0,-8.113189340E-1,-3.229206800E-1,3.462641788E0
5.207276575E0,3.477642536E0,-8.859271407E-1,-4.595171809E-1,3.618013343E0
5.212292877E0,3.465058327E0,-1.006326675E0,-5.264798999E-1,3.646437120E0
5.217309179E0,3.358568668E0,-1.203093886E0,-5.031815767E-1,3.602861377E0
5.222325481E0,3.124872208E0,-1.374752760E0,-4.529959857E-1,3.443831707E0
5.227341783E0,2.941088676E0,-1.470729113E0,-3.760645092E-1,3.309753955E0
5.232358137E0,2.771347046E0,-1.437880993E0,-2.682549059E-1,3.133660303E0
5.237374440E0,2.653903961E0,-1.340675831E0,-1.603397578E-1,2.977637781E0
5.242390742E0,2.588644028E0,-1.196121931E0,-7.117360085E-2,2.852516653E0
5.247407044E0,2.594582081E0,-1.040273428E0,4.617575184E-2,2.795739111E0
5.252423346E0,2.671555519E0,-8.829562068E-1,5.661422759E-2,2.814254026E0
5.257439648E0,2.740440369E0,-7.534930706E-1,1.143051833E-1,2.844438591E0
5.262455950E0,2.767664433E0,-6.498219967E-1,1.397730559E-1,2.846361106E0
5.267472252E0,2.789062023E0,-5.434337854E-1,2.016383708E-1,2.848656750E0
5.272488606E0,2.787873268E0,-4.629216194E-1,2.635459602E-1,2.838307640E0
5.277504908E0,2.790391445E0,-3.483957052E-1,3.662106991E-1,2.835802225E0
5.282521210E0,2.693830013E0,-2.520753145E-1,4.592359662E-1,2.744295862E0
5.287537512E0,2.565146923E0,-1.168265343E-1,5.409699678E-1,2.624171428E0
5.292553815E0,2.385237217E0,2.646493912E-2,5.616949797E-1,2.450624048E0
5.297570117E0,2.221071243E0,1.634864807E-1,6.147061586E-1,2.310356890E0
5.302586419E0,2.007941246E0,2.916164398E-1,6.262586117E-1,2.123456626E0
5.307602721E0,1.841531277E0,4.445381165E-1,6.465880871E-1,2.001731184E0
5.312619023E0,1.728908062E0,5.959398746E-1,6.323348284E-1,1.934971513E0
5.317635377E0,1.634098053E0,7.577989101E-1,5.974012017E-1,1.897741771E0
5.322651679E0,1.537838459E0,8.701114655E-1,4.962248504E-1,1.835287495E0
5.327667981E0,1.444863796E0,9.640877247E-1,3.503400087E-1,1.771957858E0
5.332684283E0,1.371803284E0,1.049187422E0,2.027572393E-1,1.738893037E0
5.337700585E0,1.325737476E0,1.111129999E0,5.364346504E-2,1.730626289E0
5.342716887E0,1.325918198E0,1.133885622E0,-1.019414663E-1,1.747612009E0
5.347733190E0,1.420168877E0,1.196706772E0,-2.498375773E-1,1.873874476E0
5.352749492E0,1.524851322E0,1.218865156E0,-3.971062899E-1,1.992108739E0
5.357765846E0,1.621025085E0,1.229658604E0,-4.914343953E-1,2.093153213E0
5.362782148E0,1.704070091E0,1.243952036E0,-5.347868204E-1,2.176526703E0
5.367798450E0,1.688160896E0,1.271622181E0,-5.211806297E-1,2.176818649E0
5.372814752E0,1.604701042E0,1.365680933E0,-6.107214689E-1,2.193884810E0
5.377831054E0,1.520874500E0,1.514364243E0,-5.376610756E-1,2.212563612E0
5.382847356E0,1.326864243E0,1.720067978E0,-5.372954607E-1,2.237831312E0
5.387863658E0,1.121129036E0,1.994992733E0,-5.074005127E-1,2.344009727E0
5.392879960E0,8.250064850E-1,2.288847208E0,-5.184980631E-1,2.487628888E0
5.397896262E0,4.986410141E-1,2.603955746E0,-5.671470165E-1,2.711251395E0
5.402912617E0,2.472209930E-2,2.906039715E0,-5.988634825E-1,2.967206679E0
5.407928919E0,-5.704746246E-1,3.175327301E0,-5.181610584E-1,3.267512150E0
5.412945221E0,-1.177140236E0,3.434985638E0,-3.729617596E-1,3.650189850E0
5.417961523E0,-1.760051727E0,3.671901703E0,-1.363207102E-1,4.074214959E0
5.422977825E0,-2.343708038E0,3.866238117E0,1.736447215E-1,4.524479753E0
5.427994127E0,-2.876177788E0,4.005230904E0,4.719184041E-1,4.953481628E0
5.433010429E0,-3.334144592E0,4.145962715E0,7.792874575E-1,5.377063877E0
5.438026731E0,-3.643845558E0,4.151977539E0,9.884445667E-1,5.611911492E0
5.443043085E0,-3.716785431E0,4.112545967E0,1.046981215E0,5.641249679E0
5.448059387E0,-3.598674774E0,4.087976456E0,1.056473374E0,5.547805658E0
5.453075690E0,-3.385439873E0,4.037949085E0,1.025091290E0,5.368151274E0
5.458091992E0,-3.131967545E0,4.013300419E0,8.549990654E-1,5.162056214E0
5.463108294E0,-2.859680176E0,3.878176689E0,5.562948585E-1,4.850514314E0
5.468124596E0,-2.580292702E0,3.800686836E0,2.728689909E-1,4.601911379E0
5.473140898E0,-2.302927494E0,3.678570747E0,3.040874004E-2,4.340078626E0
5.478157200E0,-2.027045727E0,3.574744225E0,-2.027781010E-1,4.114465896E0
5.483173554E0,-1.778458595E0,3.386849880E0,-3.725569248E-1,3.843496552E0
5.488189856E0,-1.604146957E0,3.185219288E0,-4.653292894E-1,3.596587371E0
5.493206158E0,-1.419742107E0,2.951053619E0,-5.830608606E-1,3.326311032E0
5.498222460E0,-1.313003540E0,2.727979183E0,-6.716632843E-1,3.101125648E0
5.503238762E0,-1.343503475E0,2.515852928E0,-6.835154295E-1,2.932867349E0
5.508255065E0,-1.530617714E0,2.330660343E0,-5.637221336E-1,2.844740914E0
5.513271367E0,-2.030681133E0,2.252652645E0,-3.054758310E-1,3.048183933E0
5.518287721E0,-2.529945374E0,2.164159298E0,-1.022181511E-1,3.330864394E0
5.523304023E0,-2.889893532E0,2.014796257E0,-2.260628939E-1,3.530154815E0
5.528320325E0,-3.202030659E0,1.893120289E0,-1.574271917E-1,3.723128804E0
5.533336627E0,-3.538049698E0,1.806496620E0,7.538080215E-2,3.973274213E0
5.538352929E0,-3.851741314E0,1.707733631E0,5.559527874E-2,4.213710495E0
5.543369231E0,-4.027614117E0,1.571137428E0,-4.251587391E-2,4.323419467E0
5.548385533E0,-4.100831032E0,1.438163757E0,-1.521402597E-1,4.348364842E0
5.553401835E0,-4.109032154E0,1.307038784E0,-2.971806526E-1,4.322130489E0
5.558418190E0,-4.059002399E0,1.194868565E0,-4.462323189E-1,4.254683848E0
5.563434492E0,-4.005193710E0,1.104519367E0,-5.703650713E-1,4.193668562E0
5.568450794E0,-3.952234268E0,1.017032623E0,-5.945094824E-1,4.124069906E0
5.573467096E0,-3.947525501E0,9.134826660E-1,-5.692114830E-1,4.091626801E0
5.578483398E0,-4.012580395E0,8.677220345E-1,-5.044759512E-1,4.136210698E0
5.583499700E0,-4.209862232E0,7.978062630E-1,-4.126298428E-1,4.304613599E0
5.588516002E0,-4.544497013E0,7.126178741E-1,-2.464104891E-1,4.606625171E0
5.593532356E0,-4.906477928E0,6.667413712E-1,-5.933916569E-2,4.951927993E0
5.598548658E0,-5.250282288E0,6.813616753E-1,3.985834122E-2,5.294459984E0
5.603564960E0,-5.573413849E0,7.037796974E-1,1.633938551E-1,5.620048518E0
5.608581262E0,-5.761072636E0,7.577424049E-1,2.795854807E-1,5.817413472E0
5.613597565E0,-6.002266407E0,7.283840179E-1,3.141063452E-1,6.054453575E0
5.618613867E0,-6.179965973E0,6.752567291E-1,3.144880533E-1,6.224697086E0
5.623630169E0,-6.368598461E0,5.479278564E-1,2.592208385E-1,6.397379678E0
5.628646523E0,-6.458405972E0,4.108676910E-1,1.964764595E-1,6.474443833E0
5.633662825E0,-6.494949341E0,2.114810944E-1,1.430331469E-1,6.499965359E0
5.638679127E0,-6.413936138E0,7.170581818E-2,1.303846836E-1,6.415661983E0
5.643695429E0,-6.232191563E0,-6.813573837E-2,1.565223932E-1,6.234529125E0
5.648711731E0,-5.901991367E0,-1.816024780E-1,2.026461363E-1,5.908260913E0
5.653728033E0,-5.456965923E0,-2.710971832E-1,1.419001818E-1,5.465538073E0
5.658744335E0,-5.024244785E0,-3.704719543E-1,-4.043900967E-2,5.038047285E0
5.663760637E0,-4.627980709E0,-4.656891823E-1,-2.633565664E-1,4.658801191E0
5.668776992E0,-4.146275043E0,-5.065650940E-1,-4.597178698E-1,4.202326195E0
5.673793294E0,-3.612801552E0,-4.574651718E-1,-6.730587482E-1,3.703325197E0
5.678809596E0,-3.003859520E0,-3.663353920E-1,-8.671394587E-1,3.147904776E0
5.683825898E0,-2.465366364E0,-2.117028236E-1,-1.042274833E0,2.684992778E0
5.688842200E0,-1.983259201E0,-2.968597412E-2,-1.166822910E0,2.301233152E0
5.693858502E0,-1.624664307E0,1.651830673E-1,-1.252617717E0,2.058123101E0
5.698874804E0,-1.377868652E0,3.438858986E-1,-1.316265821E0,1.936320027E0
5.703891158E0,-1.296050549E0,4.820027351E-1,-1.302157402E0,1.899391366E0
5.708907460E0,-1.348340988E0,5.888371468E-1,-1.205192685E0,1.901904838E0
5.713923762E0,-1.474736691E0,6.810860634E-1,-1.188712358E0,2.012899303E0
5.718940065E0,-1.552973270E0,7.757039070E-1,-1.243257046E0,2.135212077E0
5.723956367E0,-1.623754978E0,8.895516396E-1,-1.265503883E0,2.242628464E0
5.728972669E0,-1.706276894E0,9.318799973E-1,-1.249901652E0,2.311284342E0
5.733988971E0,-1.807885170E0,9.098968506E-1,-1.150478601E0,2.328081201E0
5.739005325E0,-1.940453053E0,8.237833977E-1,-9.934405088E-1,2.330429398E0
5.744021627E0,-2.020302296E0,6.713719368E-1,-7.301241159E-1,2.250653876E0
5.749037929E0,-2.047010899E0,5.823969841E-1,-3.821079731E-1,2.162278051E0
5.754054231E0,-2.025278568E0,5.476274490E-1,-9.412705898E-2,2.100121188E0
5.759070533E0,-1.930886745E0,5.244083405E-1,1.246021986E-1,2.004707819E0
5.764086835E0,-1.827984333E0,5.013065338E-1,2.644698620E-1,1.913838883E0
5.769103137E0,-1.752436161E0,5.572638512E-1,2.872750759E-1,1.861209947E0
5.774119440E0,-1.766407967E0,6.010775566E-1,2.731995583E-1,1.885770223E0
5.779135794E0,-1.796011448E0,6.610484123E-1,2.363514900E-1,1.928342332E0
5.784152096E0,-1.839310169E0,7.651901245E-1,1.615704298E-1,1.998670265E0
5.789168398E0,-1.776940823E0,9.490170479E-1,-1.368117332E-2,2.014532010E0
5.794184700E0,-1.608975887E0,1.150052547E0,-1.665208340E-1,1.984730071E0
5.799201002E0,-1.345051765E0,1.404029369E0,-3.244192600E-1,1.971220581E0
5.804217304E0,-1.045067310E0,1.610377789E0,-3.612731695E-1,1.953458627E0
5.809233606E0,-8.525466919E-1,1.826339722E0,-3.526781797E-1,2.046151153E0
5.814249960E0,-6.406202316E-1,1.915571213E0,-4.045929909E-1,2.059976417E0
5.819266262E0,-6.081376076E-1,1.954573154E0,-3.341784477E-1,2.074093248E0
5.824282565E0,-7.046723366E-1,1.986556530E0,-2.920202017E-1,2.127967515E0
5.829298867E0,-8.894553185E-1,1.925684929E0,-2.840505242E-1,2.140111658E0
5.834315169E0,-1.085895538E0,1.877666950E0,-2.004262805E-1,2.178295891E0
5.839331471E0,-1.298826218E0,1.792468548E0,-1.423979402E-1,2.218145670E0
5.844347773E0,-1.557078838E0,1.655758381E0,-2.307186127E-1,2.284570288E0
5.849364127E0,-1.822694778E0,1.491257668E0,-3.821190596E-1,2.385808178E0
5.854380429E0,-1.958892345E0,1.352197170E0,-5.032161474E-1,2.432883659E0
5.859396731E0,-1.941650391E0,1.296228409E0,-6.445505023E-1,2.421912401E0
5.864413033E0,-1.739437103E0,1.237996101E0,-7.323468924E-1,2.257123779E0
5.869429335E0,-1.433222771E0,1.199752331E0,-8.774302006E-1,2.064804330E0
5.874445637E0,-1.099287987E0,1.222612858E0,-1.001823425E0,1.925322428E0
5.879461992E0,-7.471475601E-1,1.268330574E0,-1.176310897E0,1.884303385E0
5.884478294E0,-4.438972473E-1,1.341505051E0,-1.277692080E0,1.905040057E0
5.889494596E0,-2.976579666E-1,1.391134739E0,-1.287547112E0,1.918758372E0
5.894510898E0,-3.182315826E-1,1.457330704E0,-1.184989214E0,1.905067862E0
5.899527200E0,-4.005832672E-1,1.501432419E0,-1.072374582E0,1.888055483E0
5.904543502E0,-5.160846710E-1,1.580808640E0,-9.322741032E-1,1.906419247E0
5.909559804E0,-6.336412430E-1,1.635782719E0,-8.211336732E-1,1.936891023E0
5.914576158E0,-7.459602356E-1,1.690638542E0,-7.263370752E-1,1.985517791E0
5.919592460E0,-7.456703186E-1,1.745105743E0,-6.622259617E-1,2.009965548E0
5.924608762E0,-7.956142426E-1,1.751288891E0,-6.093468666E-1,2.017750829E0
5.929625065E0,-8.121929169E-1,1.795130730E0,-4.794103205E-1,2.027803227E0
5.934641367E0,-8.458318710E-1,1.873919487E0,-3.782657981E-1,2.090476217E0
5.939657669E0,-8.849277496E-1,1.912872314E0,-2.460173070E-1,2.121957146E0
5.944674023E0,-9.582738876E-1,1.907066822E0,-1.856542230E-1,2.142349224E0
5.949690325E0,-9.606761932E-1,1.901913166E0,-2.014873177E-1,2.140273249E0
5.954706627E0,-8.633651733E-1,1.859494209E0,-2.956630290E-1,2.071360607E0
5.959722929E0,-7.883758545E-1,1.834947109E0,-4.728998840E-1,2.052364900E0
5.964739231E0,-5.777425766E-1,1.873972416E0,-6.135627627E-1,2.054755062E0
5.969755533E0,-3.391962051E-1,1.869025230E0,-7.657374144E-1,2.048087685E0
5.974771887E0,-7.761573792E-2,1.834424019E0,-8.394171596E-1,2.018850379E0
5.979788190E0,1.854715347E-1,1.777521133E0,-8.321324587E-1,1.971401912E0
5.984804492E0,3.878774643E-1,1.724708319E0,-7.341591120E-1,1.914172749E0
5.989820794E0,6.279029846E-1,1.702853203E0,-7.292262316E-1,1.955950430E0
5.994837096E0,8.311071396E-1,1.668348074E0,-6.880711317E-1,1.986848322E0
5.999853398E0,9.327802658E-1,1.580163002E0,-5.984399915E-1,1.930058175E0
6.004869700E0,9.327459335E-1,1.461524725E0,-3.834979236E-1,1.775708353E0
6.009886054E0,9.553089142E-1,1.350278139E0,-1.052317694E-1,1.657389483E0
6.014902356E0,9.645814896E-1,1.200925112E0,1.335358620E-1,1.546114614E0
6.019918658E0,1.075578690E0,1.114529371E0,2.995712757E-1,1.577589359E0
6.024934960E0,1.249868393E0,1.141038656E0,3.409684598E-1,1.726383418E0
6.029951262E0,1.434646606E0,1.189057589E0,3.098173141E-1,1.888929751E0
6.034967565E0,1.613027573E0,1.188765764E0,2.724257708E-1,2.022186389E0
6.039983919E0,1.818454266E0,1.178302526E0,2.923419774E-1,2.186466691E0
6.045000221E0,2.053281307E0,1.159940720E0,4.534044862E-1,2.401458354E0
6.050016523E0,2.138218403E0,1.112223625E0,6.128484011E-1,2.486886104E0
6.055032825E0,2.159529686E0,1.032598019E0,6.037640572E-1,2.468675388E0
6.060049127E0,2.244140148E0,9.501223564E-1,5.097885132E-1,2.489735292E0
6.065065429E0,2.427878380E0,8.648233414E-1,3.909495175E-1,2.606790050E0
6.070081783E0,2.646021843E0,8.266344070E-1,3.834692538E-1,2.798536172E0
6.075098085E0,2.975015640E0,7.778782845E-1,4.198260307E-1,3.103557085E0
6.080114387E0,3.292747021E0,7.374234200E-1,5.067788363E-1,3.412154896E0
6.085130690E0,3.637432098E0,7.262690067E-1,6.250612736E-1,3.761526357E0
6.090146992E0,3.966110706E0,6.967805624E-1,6.792417765E-1,4.083736852E0
6.095163294E0,4.321884155E0,7.014114857E-1,7.081763148E-1,4.435332504E0
6.100179648E0,4.599558830E0,6.778157949E-1,6.620192528E-1,4.696130873E0
6.105195950E0,4.796906948E0,5.901927948E-1,6.915378571E-1,4.882301549E0
6.110212252E0,4.947573185E0,4.458029270E-1,6.821321249E-1,5.014232235E0
6.115228554E0,5.149738789E0,3.717579842E-1,7.077733278E-1,5.211425589E0
6.120244856E0,5.267048836E0,3.221417665E-1,6.467363834E-1,5.316375335E0
6.125261158E0,5.280498028E0,2.584432364E-1,6.329326034E-1,5.324570969E0
6.130277460E0,5.266747952E0,1.755627394E-1,6.352517605E-1,5.307824513E0
6.135293815E0,5.264088631E0,5.635130405E-2,6.963588595E-1,5.310246721E0
6.140310117E0,5.277308464E0,-8.980882168E-2,7.319893837E-1,5.328588810E0
6.145326419E0,5.327905655E0,-2.131289840E-1,7.701936960E-1,5.387504149E0
6.150342721E0,5.458930016E0,-3.637930155E-1,7.936080098E-1,5.528297744E0
6.155359023E0,5.608142376E0,-5.063665509E-1,7.974785566E-1,5.687146916E0
6.160375325E0,5.734906197E0,-6.098313928E-1,7.736939192E-1,5.818904166E0
6.165391679E0,5.827365875E0,-7.076854110E-1,7.222851515E-1,5.914449047E0
6.170407981E0,5.995650291E0,-7.830809951E-1,7.251238227E-1,6.089896782E0
6.175424283E0,6.036476135E0,-9.102376699E-1,7.750059366E-1,6.153715215E0
6.180440585E0,6.045710564E0,-1.007668376E0,7.046049833E-1,6.169479715E0
6.185456887E0,6.004337311E0,-1.192595720E0,5.649329424E-1,6.147641851E0
6.190473190E0,6.003349304E0,-1.364150763E0,4.734503031E-1,6.174566006E0
6.195489544E0,5.896905422E0,-1.582213044E0,3.640443981E-1,6.116324059E0
6.200505846E0,5.795163631E0,-1.822897673E0,2.560428679E-1,6.080496311E0
6.205522148E0,5.662298203E0,-2.024148226E0,1.620243192E-1,6.015400972E0
6.210538450E0,5.519932270E0,-2.209480762E0,5.867007375E-2,5.945998628E0
6.215554752E0,5.370481968E0,-2.333788633E0,8.439600468E-3,5.855656853E0
6.220571054E0,5.218760967E0,-2.440092325E0,-1.954686642E-2,5.761067494E0
6.225587408E0,5.045650482E0,-2.463954926E0,2.757295966E-2,5.615195716E0
6.230603710E0,4.853558064E0,-2.431472063E0,4.158851504E-2,5.428702596E0
6.235620012E0,4.673566341E0,-2.300001383E0,1.291650534E-2,5.208876611E0
6.240636315E0,4.486513615E0,-2.119734764E0,2.506542206E-2,4.962127382E0
6.245652617E0,4.249318123E0,-1.945886135E0,1.486930251E-2,4.673692165E0
6.250668919E0,3.959611893E0,-1.835975766E0,-1.356130838E-2,4.364575267E0
6.255685221E0,3.691548347E0,-1.777971625E0,-7.302241027E-2,4.098053754E0
6.260701575E0,3.488121033E0,-1.683192968E0,-2.032889426E-2,3.873053081E0
6.265717877E0,3.289453506E0,-1.649693012E0,3.421589732E-2,3.680103549E0
6.270734179E0,3.119421959E0,-1.624793887E0,1.283471286E-1,3.519548482E0
6.275750481E0,2.939701080E0,-1.620678186E0,2.671479285E-1,3.367463176E0
6.280766783E0,2.793319702E0,-1.565403461E0,4.121761918E-1,3.228469013E0
6.285783137E0,2.716079712E0,-1.501857996E0,5.392666459E-1,3.150154751E0
6.290799440E0,2.712667942E0,-1.463069558E0,5.314635038E-1,3.127553893E0
6.295815742E0,2.723173141E0,-1.401296377E0,4.583560526E-1,3.096674630E0
6.300832044E0,2.769067764E0,-1.290139437E0,3.364183903E-1,3.073332618E0
6.305848346E0,2.840728283E0,-1.162772775E0,1.798539162E-1,3.074756110E0
6.310864648E0,2.928493023E0,-1.084098101E0,3.195253760E-2,3.122877046E0
6.315880950E0,2.991635799E0,-1.042271376E0,-1.198357567E-1,3.170264182E0
6.320897304E0,3.034889221E0,-1.059115529E0,-1.756549478E-1,3.219182031E0
6.325913606E0,3.079713821E0,-1.067889571E0,-2.362466305E-1,3.268155111E0
6.330929908E0,3.104511261E0,-1.099733949E0,-1.963893473E-1,3.299389899E0
6.335946210E0,3.281439781E0,-1.082478285E0,-1.476854980E-1,3.458528196E0
6.340962512E0,3.433292866E0,-1.123695016E0,6.112378091E-2,3.613021797E0
6.345978815E0,3.411770821E0,-1.218593478E0,2.762959003E-1,3.633385422E0
6.350995169E0,3.391590595E0,-1.311787963E0,3.977144063E-1,3.658121263E0
6.356011471E0,3.375047207E0,-1.384127378E0,6.441270113E-1,3.704274808E0
6.361027773E0,3.309524059E0,-1.499645710E0,8.433731794E-1,3.730035533E0
6.366044075E0,3.178320885E0,-1.555104256E0,1.041537404E0,3.688478420E0
6.371060377E0,3.005427837E0,-1.614746332E0,1.157415032E0,3.602722826E0
6.376076679E0,2.769417763E0,-1.601488113E0,1.174948215E0,3.408070162E0
6.381092981E0,2.508698463E0,-1.498038888E0,1.064337134E0,3.109743080E0
6.386109335E0,2.275972366E0,-1.368599176E0,9.797203541E-1,2.830718264E0
6.391125637E0,2.042572498E0,-1.172194481E0,7.475466728E-1,2.470823413E0
6.396141940E0,1.928174019E0,-8.629159927E-1,5.245693326E-1,2.176614813E0
6.401158242E0,1.861055851E0,-4.713377953E-1,1.440464258E-1,1.925211046E0
6.406174544E0,1.936906815E0,-3.067588806E-2,-2.284286916E-1,1.950571374E0
6.411190846E0,2.002578735E0,3.515679836E-1,-5.328865051E-1,2.101877652E0
6.416207200E0,2.070055008E0,7.591657639E-1,-7.910376191E-1,2.342477515E0
6.421223502E0,2.124902248E0,1.139118195E0,-9.845166206E-1,2.604241310E0
6.426239804E0,2.164699554E0,1.527181625E0,-1.128010631E0,2.879342956E0
6.431256106E0,2.265952110E0,1.940021038E0,-1.174095988E0,3.205732675E0
6.436272408E0,2.301793098E0,2.269802332E0,-1.233669639E0,3.460085963E0
6.441288710E0,2.305644035E0,2.578367472E0,-1.209421992E0,3.664242731E0
6.446305065E0,2.215240479E0,2.831865072E0,-1.185709953E0,3.785849741E0
6.451321367E0,2.119063854E0,3.058746338E0,-1.148874640E0,3.894390031E0
6.456337669E0,1.966706276E0,3.174807310E0,-1.065908194E0,3.883747586E0
6.461353971E0,1.715080261E0,3.227639437E0,-9.331044555E-1,3.772246090E0
6.466370273E0,1.397457600E0,3.254754543E0,-8.248857856E-1,3.636860107E0
6.471386575E0,1.016233444E0,3.241579771E0,-7.233611345E-1,3.473301190E0
6.476402877E0,6.286230087E-1,3.194819927E0,-7.003757954E-1,3.330550632E0
6.481419231E0,2.058525085E-1,3.112148523E0,-5.594274402E-1,3.168722573E0
6.486435533E0,-1.349992752E-1,3.036670208E0,-3.406447768E-1,3.058697373E0
6.491451835E0,-4.682064056E-1,2.918478727E0,-7.894235849E-2,2.956850895E0
6.496468137E0,-7.361793518E-1,2.834770203E0,1.606590152E-1,2.933205322E0
6.501484440E0,-9.316873550E-1,2.707216263E0,3.143830299E-1,2.880260042E0
6.506500794E0,-1.052252769E0,2.612813950E0,4.082206488E-1,2.846168780E0
6.511517096E0,-1.191123009E0,2.501894951E0,4.794829786E-1,2.812144430E0
6.516533398E0,-1.242712021E0,2.422990322E0,5.205550194E-1,2.772398383E0
6.521549700E0,-1.245128632E0,2.371853352E0,4.002550840E-1,2.708549014E0
6.526566002E0,-1.183748245E0,2.305882931E0,2.376909256E-1,2.602854774E0
6.531582304E0,-1.051054955E0,2.165945053E0,-5.635499954E-3,2.407502077E0
6.536598606E0,-9.019355774E-1,2.040727615E0,-2.463840246E-1,2.244718707E0
6.541614960E0,-8.774585724E-1,1.927768707E0,-3.408904076E-1,2.145327948E0
6.546631262E0,-1.078067780E0,1.857742786E0,-2.677276134E-1,2.164512987E0
6.551647565E0,-1.458174706E0,1.827982426E0,-1.343461275E-1,2.342187461E0
6.556663867E0,-1.876596451E0,1.883797646E0,-3.813099861E-2,2.659278433E0
6.561680169E0,-2.199283600E0,2.027577877E0,-5.739927292E-4,2.991307528E0
6.566696471E0,-2.540936470E0,2.225622654E0,2.484917641E-2,3.377924189E0
6.571712773E0,-2.817615032E0,2.389346600E0,4.896235466E-2,3.694635159E0
6.576729127E0,-2.919192791E0,2.559536934E0,1.670094728E-1,3.885975815E0
6.581745429E0,-2.900756359E0,2.654715061E0,1.126337051E-1,3.933775014E0
6.586761731E0,-2.833798885E0,2.696657181E0,-7.899689674E-2,3.912622724E0
6.591778033E0,-2.828545570E0,2.709148884E0,-2.419954538E-1,3.924120222E0
6.596794335E0,-2.952046871E0,2.775567532E0,-2.998076677E-1,4.063033410E0
6.601810637E0,-3.190231800E0,2.830566883E0,-2.598547935E-1,4.272845929E0
6.606826992E0,-3.579463959E0,2.813653946E0,-2.723088264E-1,4.561070363E0
6.611843294E0,-4.036331177E0,2.819982052E0,-1.959209442E-1,4.927743211E0
6.616859596E0,-4.460082054E0,2.713240623E0,-8.687543869E-2,5.221259805E0
6.621875898E0,-4.561243057E0,2.673552990E0,-7.533085346E-2,5.287579650E0
6.626892200E0,-4.990935802E0,2.918087482E0,3.770581484E-1,5.793690325E0
6.631908502E0,-5.758650780E0,2.900920868E0,6.432226896E-1,6.480056799E0
6.636924856E0,-6.383033276E0,2.713452816E0,6.915966272E-1,6.970240016E0
6.641941158E0,-6.686569691E0,2.433274269E0,5.965161324E-1,7.140509043E0
6.646957460E0,-6.781527519E0,2.125773907E0,4.519544840E-1,7.121256424E0
6.651973762E0,-6.975015163E0,1.776669979E0,3.904119730E-1,7.208315632E0
6.656990065E0,-7.197272301E0,1.360148907E0,4.194121361E-1,7.336664103E0
6.662006367E0,-7.235949516E0,8.502211571E-1,2.881397009E-1,7.291424134E0
6.667022721E0,-7.166341782E0,3.315992355E-1,1.118105650E-1,7.174880779E0
6.672039023E0,-6.883641720E0,-1.540122032E-1,-3.547505140E-1,6.894497154E0
6.677055325E0,-6.455963135E0,-5.413174629E-1,-7.257906199E-1,6.519145390E0
6.682071627E0,-6.009049416E0,-7.748589516E-1,-9.931120872E-1,6.139654135E0
6.687087929E0,-5.546864986E0,-9.141006470E-1,-1.281475306E0,5.765888494E0
6.692104231E0,-4.968303204E0,-9.466109276E-1,-1.566475868E0,5.294710154E0
6.697120533E0,-4.414132118E0,-9.271097183E-1,-1.833165765E0,4.868736130E0
6.702136887E0,-3.869546890E0,-8.983325958E-1,-1.956788063E0,4.428251812E0
6.707153190E0,-3.523830891E0,-8.222880363E-1,-1.900759578E0,4.087349842E0
6.712169492E0,-3.427515030E0,-7.352023125E-1,-1.649822474E0,3.874312315E0
6.717185794E0,-3.442386150E0,-5.729994774E-1,-1.203077793E0,3.691306948E0
6.722202096E0,-3.607649803E0,-3.843870163E-1,-7.631061077E-1,3.707454843E0
6.727218398E0,-3.823807240E0,-2.132177353E-1,-3.623794317E-1,3.846853579E0
6.732234752E0,-3.978995800E0,-2.890253067E-2,-6.055414677E-2,3.979561501E0
6.737251054E0,-4.069587708E0,1.435756683E-1,1.423447132E-1,4.074606742E0
6.742267356E0,-4.227744102E0,2.005386353E-1,1.878355742E-1,4.236663563E0
6.747283658E0,-4.260173798E0,2.823095322E-1,5.539762974E-2,4.269876855E0
6.752299960E0,-4.227118969E0,3.953986168E-1,-1.579242945E-1,4.248507376E0
6.757316262E0,-4.121510506E0,5.800514221E-1,-3.982340097E-1,4.181136069E0
6.762332565E0,-3.859333038E0,7.838144302E-1,-5.920468569E-1,3.982378189E0
6.767348919E0,-3.512313366E0,1.030726910E0,-7.396723032E-1,3.734415384E0
6.772365221E0,-3.082661152E0,1.232585907E0,-8.435801268E-1,3.425448179E0
6.777381523E0,-2.680436134E0,1.358524799E0,-8.939898014E-1,3.135210562E0
6.782397825E0,-2.307990551E0,1.442171574E0,-9.388179779E-1,2.878898822E0
6.787414127E0,-2.056333065E0,1.454764843E0,-1.016324520E0,2.716203592E0
6.792430481E0,-1.939857483E0,1.455966473E0,-1.121956229E0,2.672390541E0
6.797446783E0,-1.932654858E0,1.412151814E0,-1.153981924E0,2.657254565E0
6.802463085E0,-2.038082600E0,1.353700638E0,-1.101653934E0,2.683268061E0
6.807479387E0,-2.273277760E0,1.299298763E0,-9.862638712E-1,2.797978819E0
6.812495690E0,-2.454041004E0,1.186641216E0,-9.372384548E-1,2.882507684E0
6.817511992E0,-2.561194420E0,1.054201603E0,-9.114420414E-1,2.915781966E0
6.822528294E0,-2.611673832E0,9.092435837E-1,-7.814277411E-1,2.873707260E0
6.827544648E0,-2.612674236E0,7.043409348E-1,-5.435726643E-1,2.760006170E0
6.832560950E0,-2.542819500E0,5.737910271E-1,-2.320244312E-1,2.617059894E0
6.837577252E0,-2.339642048E0,4.631900787E-1,1.210108995E-1,2.388119260E0
6.842593554E0,-2.062513351E0,4.163765907E-1,4.114085436E-1,2.143965433E0
6.847609856E0,-1.739626408E0,4.268517494E-1,5.682153702E-1,1.879194285E0
6.852626158E0,-1.387667656E0,4.923181534E-1,6.182747483E-1,1.596954086E0
6.857642512E0,-1.039858818E0,5.099358559E-1,5.509571433E-1,1.282534488E0
6.862658815E0,-7.103514671E-1,6.111583710E-1,2.883212566E-1,9.804299609E-1
6.867675117E0,-3.870067596E-1,7.024230957E-1,3.188967705E-2,8.026140971E-1
6.872691419E0,-1.249547005E-1,8.287839890E-1,-2.554711103E-1,8.762203294E-1
6.877707721E0,4.234266281E-2,9.156756401E-1,-4.774280787E-1,1.033533913E0
6.882724023E0,1.125931740E-1,9.916439056E-1,-5.681791306E-1,1.148417338E0
6.887740377E0,1.719083786E-1,1.085104942E0,-6.199392080E-1,1.261479230E0
6.892756679E0,7.671070099E-2,1.124180317E0,-5.803610086E-1,1.267471821E0
6.897772981E0,-3.897666931E-2,1.166373730E0,-5.066832304E-1,1.272271494E0
6.902789283E0,-2.015438080E-1,1.156679153E0,-3.700114489E-1,1.231030074E0
6.907805585E0,-4.468960762E-1,1.174185753E0,-2.796527147E-1,1.287102920E0
6.912821887E0,-7.150926590E-1,1.207075596E0,-2.115710974E-1,1.418855643E0
6.917838190E0,-9.921088219E-1,1.212148190E0,-2.171916962E-1,1.581377684E0
6.922854544E0,-1.271191597E0,1.165448666E0,-1.190268993E-2,1.724627595E0
6.927870846E0,-1.607599735E0,1.164816856E0,1.056015491E-1,1.988046002E0
6.932887148E0,-1.862612724E0,1.157494545E0,2.068971395E-1,2.202708834E0
6.937903450E0,-2.072231770E0,1.129053116E0,1.889527440E-1,2.367405454E0
6.942919752E0,-2.205376148E0,1.134617805E0,1.453880072E-1,2.484387086E0
6.947936054E0,-2.171160698E0,1.179078102E0,1.934036016E-1,2.478218897E0
6.952952356E0,-2.141758919E0,1.243525505E0,1.846454144E-1,2.483461471E0
6.957968710E0,-2.011917114E0,1.294578075E0,2.104512453E-1,2.401672874E0
6.962985012E0,-1.848700523E0,1.327470779E0,1.893484592E-1,2.283796211E0
6.968001315E0,-1.639942169E0,1.392802715E0,9.982419014E-2,2.153897535E0
6.973017617E0,-1.385475159E0,1.435878277E0,-3.654921055E-2,1.995651193E0
6.978033919E0,-1.041743279E0,1.507793903E0,-1.530418992E-1,1.839046855E0
6.983050221E0,-6.683568954E-1,1.491834164E0,-2.903644443E-1,1.660295643E0
6.988066575E0,-3.319072723E-1,1.494025230E0,-4.390139580E-1,1.592170557E0
6.993082877E0,-8.739471436E-2,1.492815971E0,-5.040962100E-1,1.578052708E0
6.998099179E0,4.615592957E-2,1.464505672E0,-5.378237963E-1,1.560820832E0
7.003115481E0,1.522502899E-1,1.461365700E0,-4.569760561E-1,1.538699768E0
7.008131783E0,1.156606674E-1,1.446906090E0,-3.666903079E-1,1.497122709E0
7.013148085E0,8.210849762E-2,1.447072506E0,-2.383000851E-1,1.468859276E0
7.018164387E0,-6.595706940E-2,1.406376362E0,-5.225414038E-2,1.408891515E0
7.023180742E0,-2.162761688E-1,1.403411388E0,1.315353215E-1,1.426057659E0
7.028197044E0,-4.169826508E-1,1.382707119E0,2.228847444E-1,1.461311437E0
7.033213346E0,-5.962896347E-1,1.387357235E0,2.698419392E-1,1.533993513E0
7.038229648E0,-7.230129242E-1,1.434343338E0,1.576085389E-1,1.613979229E0
7.043245950E0,-7.446165085E-1,1.506949902E0,6.376986206E-2,1.682087497E0
7.048262304E0,-7.832565308E-1,1.595491409E0,-8.841344714E-2,1.779578761E0
7.053278606E0,-7.911748886E-1,1.687859535E0,-1.988666505E-1,1.874666760E0
7.058294908E0,-7.564268112E-1,1.777000427E0,-2.842465937E-1,1.952103523E0
7.063311210E0,-6.887779236E-1,1.896121025E0,-3.121196330E-1,2.041349709E0
7.068327512E0,-6.169614792E-1,2.011770248E0,-4.167669415E-1,2.145123699E0
7.073343815E0,-5.698089600E-1,2.140472889E0,-5.265176892E-1,2.276736110E0
7.078360117E0,-6.024341583E-1,2.207806110E0,-6.681336164E-1,2.384058990E0
7.083376471E0,-5.857648849E-1,2.242258310E0,-7.577902675E-1,2.438255302E0
7.088392773E0,-6.157188416E-1,2.186000347E0,-7.977632284E-1,2.407100617E0
7.093409075E0,-6.445894241E-1,2.074578047E0,-7.567641735E-1,2.300448133E0
7.098425377E0,-5.933885574E-1,1.872349739E0,-6.995108128E-1,2.084974557E0
7.103441679E0,-4.335460663E-1,1.658231020E0,-5.725364089E-1,1.807066752E0
7.108457981E0,-2.966432571E-1,1.468223572E0,-4.665625691E-1,1.568871668E0
7.113474283E0,-6.783008575E-2,1.299968004E0,-3.334541321E-1,1.343766866E0
7.118490637E0,1.811428070E-1,1.172796726E0,-1.588911116E-1,1.197293307E0
7.123506940E0,3.736295700E-1,1.076745272E0,-1.225636899E-2,1.139793689E0
7.128523242E0,5.742683411E-1,1.004516840E0,6.180581450E-2,1.158731275E0
7.133539544E0,8.357038498E-1,1.011139393E0,4.420948029E-2,1.312538866E0
7.138555846E0,1.162747383E0,1.087258577E0,-7.257670164E-2,1.593543243E0
7.143572148E0,1.521880150E0,1.137220621E0,-2.597957253E-1,1.917520209E0
7.148588502E0,1.841323853E0,1.108444452E0,-3.886187673E-1,2.184066661E0
7.153604804E0,2.219234943E0,1.013265848E0,-4.905937314E-1,2.488452053E0
7.158621106E0,2.586232185E0,9.211993217E-1,-4.145085216E-1,2.776512637E0
7.163637408E0,2.882445812E0,7.361578941E-1,-2.104979455E-1,2.982403677E0
7.168653710E0,3.043375969E0,5.513582230E-1,-5.076856911E-2,3.093333255E0
7.173670012E0,3.195964813E0,4.099752903E-1,8.395856619E-2,3.223246790E0
7.178686315E0,3.359312057E0,3.739063740E-1,1.292639673E-1,3.382527553E0
7.183702669E0,3.554893017E0,3.807253838E-1,1.827400923E-1,3.579889680E0
7.188718971E0,3.746698856E0,3.771575689E-1,2.038626075E-1,3.771148381E0
7.193735273E0,3.910775661E0,3.054169416E-1,2.642389238E-1,3.931573221E0
7.198751575E0,4.095005989E0,1.989257336E-1,3.353796005E-1,4.113529503E0
7.203767877E0,4.316136837E0,1.126028299E-1,4.103183150E-1,4.337058648E0
7.208784179E0,4.557470798E0,-2.988922596E-2,4.725489914E-1,4.582001309E0
7.213800481E0,4.701854229E0,-1.713192463E-1,5.085344911E-1,4.732376866E0
7.218816835E0,4.833143234E0,-2.853552103E-1,5.900275707E-1,4.877379794E0
7.223833137E0,4.884356976E0,-3.607450724E-1,6.404637098E-1,4.939359658E0
7.228849440E0,4.855550766E0,-4.411691427E-1,6.470907927E-1,4.918305597E0
7.233865742E0,4.854468822E0,-4.740818143E-1,6.908311248E-1,4.926242864E0
7.238882044E0,4.857182980E0,-4.647542238E-1,6.925269961E-1,4.928267102E0
7.243898346E0,4.873301983E0,-4.324381351E-1,6.946574450E-1,4.941520406E0
7.248914648E0,4.838259220E0,-4.279843569E-1,6.849129796E-1,4.905204245E0
7.253931002E0,4.804799080E0,-5.040836334E-1,7.183409929E-1,4.884281758E0
7.258947304E0,4.799276829E0,-6.178770065E-1,7.730970383E-1,4.900256024E0
7.263963606E0,4.840858459E0,-6.999118924E-1,8.344234228E-1,4.961859503E0
7.268979908E0,4.910429955E0,-7.623101473E-1,8.664778471E-1,5.044226696E0
7.273996210E0,4.998483181E0,-7.905343771E-1,9.150124788E-1,5.142667260E0
7.279012512E0,5.083527088E0,-8.062666655E-1,9.342963696E-1,5.231178003E0
7.284028815E0,5.165627480E0,-8.047102690E-1,9.649834037E-1,5.316244807E0
7.289045169E0,5.237667561E0,-8.025003672E-1,9.183112383E-1,5.377774990E0
7.294061471E0,5.297320843E0,-7.660083771E-1,8.372618556E-1,5.417507209E0
7.299077773E0,5.342259884E0,-7.170035839E-1,7.296513319E-1,5.439322189E0
7.304094075E0,5.274495602E0,-8.039560318E-1,6.121273041E-1,5.370414229E0
7.309110377E0,5.170718670E0,-9.696289897E-1,5.307546854E-1,5.287552598E0
7.314126679E0,5.054938793E0,-1.182531118E0,4.860265255E-1,5.214116208E0
7.319142981E0,5.018048763E0,-1.387695312E0,4.013245106E-1,5.221836175E0
7.324159335E0,5.019326687E0,-1.527381539E0,3.580290079E-1,5.258775478E0
7.329175637E0,5.049179554E0,-1.651762009E0,3.492167592E-1,5.323953817E0
7.334191940E0,4.997585773E0,-1.756101608E0,3.439425230E-1,5.308300376E0
7.339208242E0,4.867048740E0,-1.914396286E0,3.546382189E-1,5.242026788E0
7.344224544E0,4.748538971E0,-2.020760775E0,3.549408019E-1,5.172821226E0
7.349240846E0,4.656394005E0,-2.036517143E0,3.306878805E-1,5.093011062E0
7.354257148E0,4.561872959E0,-2.002367735E0,3.273441195E-1,4.992726271E0
7.359273502E0,4.460181236E0,-1.942138553E0,3.637213707E-1,4.878259121E0
7.364289804E0,4.313043118E0,-1.819995165E0,3.938703835E-1,4.697856662E0
7.369306106E0,4.115710735E0,-1.746093750E0,4.606998563E-1,4.494459100E0
7.374322408E0,3.875409126E0,-1.672309279E0,5.857291818E-1,4.261278317E0
7.379338710E0,3.659112453E0,-1.586857677E0,6.326522827E-1,4.038250877E0
7.384355012E0,3.488298416E0,-1.491840005E0,6.588250399E-1,3.850696414E0
7.389371315E0,3.358108521E0,-1.368041277E0,7.215864062E-1,3.697176857E0
7.394387617E0,3.266062260E0,-1.246780276E0,7.204777598E-1,3.569413389E0
7.399403971E0,3.152301788E0,-1.156854630E0,7.075806260E-1,3.431616170E0
7.404420273E0,3.040734768E0,-1.103053331E0,6.587149501E-1,3.301014990E0
7.409436575E0,3.005444527E0,-1.028139114E0,5.832818151E-1,3.229548655E0
7.414452877E0,3.036722183E0,-9.969224930E-1,4.621399641E-1,3.229413170E0
7.419469179E0,3.045990467E0,-1.018808126E0,3.235028386E-1,3.228108116E0
7.424485481E0,3.109744549E0,-1.055605292E0,2.369093001E-1,3.292558232E0
7.429501783E0,3.203966618E0,-1.097624898E0,1.666342616E-1,3.390862645E0
7.434518085E0,3.340549469E0,-1.149245024E0,7.768341154E-2,3.533563300E0
7.439534440E0,3.476358414E0,-1.207992196E0,-1.073566079E-2,3.680275563E0
7.444550742E0,3.644826889E0,-1.221094728E0,-9.338617325E-2,3.845069097E0
7.449567044E0,3.798033237E0,-1.226918459E0,-2.394056618E-1,3.998462260E0
7.454583346E0,3.974239349E0,-1.170029879E0,-3.168960810E-1,4.154993556E0
7.459599648E0,4.168584824E0,-1.021563768E0,-4.039743245E-1,4.310903295E0
7.464615950E0,4.373871803E0,-8.076306581E-1,-4.173503518E-1,4.467348559E0
7.469632252E0,4.465688705E0,-6.311189532E-1,-4.787348211E-1,4.535402273E0
7.474648606E0,4.554169178E0,-4.392264485E-1,-5.697133541E-1,4.610634455E0
7.479664908E0,4.505427361E0,-2.652684450E-1,-6.956869364E-1,4.566532970E0
7.484681210E0,4.558824539E0,-8.937048912E-2,-8.111462593E-1,4.631287782E0
7.489697512E0,4.398608685E0,4.526531696E-2,-8.691943884E-1,4.483894088E0
7.494713815E0,4.001101017E0,1.195441484E-1,-8.982567787E-1,4.102434081E0
7.499730117E0,3.426270962E0,2.121360302E-1,-8.667843938E-1,3.540571929E0
7.504746419E0,2.757924080E0,3.013713360E-1,-8.481937647E-1,2.901103682E0
7.509762721E0,2.003163338E0,4.418511391E-1,-8.702780604E-1,2.228290755E0
7.514779075E0,1.341372490E0,6.625012159E-1,-8.749163151E-1,1.733108934E0
7.519795377E0,7.388086319E-1,8.864367008E-1,-8.834139109E-1,1.453281926E0
7.524811679E0,2.359075546E-1,1.127791643E0,-8.789811134E-1,1.449197765E0
7.529827981E0,-1.890830994E-1,1.355062246E0,-8.195435405E-1,1.594866052E0
7.534844283E0,-4.885139465E-1,1.541541576E0,-7.255974412E-1,1.772424316E0
7.539860585E0,-6.051664352E-1,1.706084251E0,-6.465841532E-1,1.922243729E0
7.544876887E0,-6.515598297E-1,1.836737394E0,-5.578019619E-1,2.027135293E0
7.549893190E0,-6.276998520E-1,1.895216942E0,-4.653804302E-1,2.049983733E0
7.554909492E0,-5.598411560E-1,1.888768435E0,-4.019372463E-1,2.010577496E0
7.559925794E0,-4.359064102E-1,1.853830338E0,-3.177011013E-1,1.930708499E0
7.564942148E0,-3.156833649E-1,1.754646778E0,-2.130966187E-1,1.795508694E0
7.569958450E0,-2.110223770E-1,1.663452625E0,-1.048154831E-1,1.680056953E0
7.574974752E0,-2.031183243E-1,1.532789707E0,-7.635748386E-2,1.548073579E0
7.579991054E0,-1.267967224E-1,1.439682245E0,-7.210528851E-2,1.447052711E0
7.585007356E0,-1.016454697E-1,1.348781824E0,-9.346270561E-2,1.355831659E0
7.590023658E0,-1.082849503E-1,1.260579824E0,-1.643269062E-1,1.275848916E0
7.595039960E0,-8.216381073E-2,1.235139132E0,-3.241319656E-1,1.279601929E0
7.600056262E0,-1.715192795E-1,1.205797434E0,-4.644074440E-1,1.303472512E0
7.605072617E0,-3.163995743E-1,1.199015141E0,-6.493481398E-1,1.399785342E0
7.610088919E0,-4.762754440E-1,1.219195366E0,-8.736646175E-1,1.573710743E0
7.615105221E0,-7.276382446E-1,1.223311901E0,-1.055827618E0,1.772208052E0
7.620121523E0,-1.001078606E0,1.256800175E0,-1.212253332E0,2.012774999E0
7.625137825E0,-1.349570274E0,1.299898624E0,-1.330123782E0,2.297891563E0
7.630154127E0,-1.655981064E0,1.340613842E0,-1.399230242E0,2.548992747E0
7.635170429E0,-1.918513298E0,1.416854382E0,-1.393284202E0,2.762138751E0
7.640186731E0,-2.046489716E0,1.511980057E0,-1.208457470E0,2.816837465E0
7.645203033E0,-2.092753410E0,1.587997913E0,-1.159440041E0,2.871524929E0
7.650219387E0,-2.045539856E0,1.666724205E0,-9.555151463E-1,2.806280826E0
7.655235690E0,-1.930868149E0,1.820594788E0,-6.045546532E-1,2.721819891E0
7.660251992E0,-1.721858978E0,1.969067574E0,-3.616352081E-1,2.640607028E0
7.665268294E0,-1.499147415E0,2.129868031E0,-5.818283558E-2,2.605219001E0
7.670284596E0,-1.276664734E0,2.300947189E0,2.091053724E-1,2.639688593E0
7.675300898E0,-1.140048981E0,2.410833359E0,4.750040770E-1,2.708774268E0
7.680317200E0,-1.088969231E0,2.543024540E0,6.637960076E-1,2.844899460E0
7.685333502E0,-1.178258896E0,2.634730816E0,8.049426675E-1,2.996336629E0
7.690349804E0,-1.295386314E0,2.681005955E0,9.272180200E-1,3.118581711E0
7.695366158E0,-1.488398075E0,2.760199070E0,1.128474832E0,3.332789099E0
7.700382460E0,-1.668900013E0,2.843254566E0,1.279701591E0,3.536518053E0
7.705398762E0,-1.909313202E0,2.874294281E0,1.343347669E0,3.702921478E0
7.710415065E0,-2.162167072E0,2.970186234E0,1.413722277E0,3.936442986E0
7.715431367E0,-2.360981941E0,3.020314217E0,1.390818000E0,4.078101078E0
7.720447669E0,-2.542068958E0,3.100938797E0,1.217896461E0,4.190609479E0
7.725463971E0,-2.727159977E0,3.190260410E0,9.881757498E-1,4.311804070E0
7.730480273E0,-2.798756123E0,3.221755028E0,6.273361444E-1,4.313501122E0
7.735496575E0,-2.809666634E0,3.482530594E0,3.057352304E-1,4.485055179E0
7.740512929E0,-3.056274891E0,3.661878586E0,9.545588493E-2,4.770669011E0
7.745529231E0,-3.363070965E0,3.648130894E0,-1.551183462E-1,4.964188457E0
7.750545533E0,-3.610069275E0,3.554156780E0,-4.249957800E-1,5.083822578E0
7.755561835E0,-3.845467567E0,3.413696766E0,-5.544545650E-1,5.171882277E0
7.760578137E0,-4.358523846E0,3.248319626E0,-2.068514824E-1,5.439770036E0
7.765594440E0,-4.710327148E0,2.931884289E0,-3.075526953E-1,5.556772084E0
7.770610742E0,-4.917960167E0,2.517209053E0,-2.047152519E-1,5.528524392E0
7.775627044E0,-5.217908859E0,2.014086246E0,-1.668179035E-2,5.593156046E0
7.780643346E0,-5.433896542E0,1.473330021E0,-1.537890434E-1,5.632191762E0
7.785659648E0,-5.464330673E0,9.409646988E-1,-3.522076607E-1,5.555931471E0
7.790675950E0,-5.406492710E0,4.868268967E-1,-5.076436996E-1,5.452051538E0
7.795692304E0,-5.336745739E0,6.813812256E-2,-5.712850094E-1,5.367668437E0
7.800708606E0,-5.238297462E0,-2.549743652E-1,-5.582363605E-1,5.274125526E0
7.805724908E0,-5.130588531E0,-5.397696495E-1,-4.901609421E-1,5.182137368E0
7.810741210E0,-5.013864040E0,-7.431573868E-1,-4.324394464E-1,5.087054098E0
7.815757512E0,-4.916909218E0,-8.938140869E-1,-3.576251268E-1,5.010269016E0
7.820773815E0,-4.854060650E0,-9.725627899E-1,-3.605402708E-1,4.963645078E0
7.825790117E0,-4.717425346E0,-9.410843849E-1,-3.358567953E-1,4.822088915E0
7.830806419E0,-4.628578186E0,-8.781733513E-1,-3.915892839E-1,4.727395332E0
7.835822721E0,-4.559007645E0,-8.080801964E-1,-3.770248890E-1,4.645394717E0
7.840839075E0,-4.518570423E0,-7.383012772E-1,-3.064799309E-1,4.588735925E0
7.845855377E0,-4.542861462E0,-6.638898849E-1,-1.586498022E-1,4.593855657E0
7.850871679E0,-4.586626053E0,-5.349745750E-1,2.304708958E-2,4.617777335E0
7.855887981E0,-4.724369526E0,-4.644198418E-1,6.626224518E-2,4.747604016E0
7.860904283E0,-4.872551918E0,-3.590240479E-1,8.631980419E-2,4.886523465E0
7.865920585E0,-4.945543289E0,-2.958660126E-1,9.244191647E-2,4.955247787E0
7.870936887E0,-4.993985176E0,-2.249794006E-1,-2.541232109E-2,4.999114867E0
7.875953190E0,-4.929638386E0,-1.202116013E-1,-1.283521652E-1,4.932774039E0
7.880969492E0,-4.671633720E0,4.918527603E-2,-2.453041077E-1,4.678328218E0
7.885985794E0,-4.365989208E0,1.776432991E-1,-4.828321934E-1,4.396196747E0
7.891002148E0,-4.051425934E0,3.529872894E-1,-7.797777653E-1,4.140858062E0
7.896018450E0,-3.716092110E0,5.412435532E-1,-1.101483822E0,3.913508881E0
7.901034752E0,-3.403296471E0,7.132158279E-1,-1.401050329E0,3.748872592E0
7.906051054E0,-3.127793789E0,8.851652145E-1,-1.583155155E0,3.615659233E0
7.911067356E0,-2.935354233E0,1.023120880E0,-1.712966919E0,3.549272668E0
7.916083658E0,-2.859866142E0,1.109903336E0,-1.697268486E0,3.505915013E0
7.921099960E0,-2.928405285E0,1.168910503E0,-1.601999640E0,3.536709223E0
7.926116262E0,-3.136826038E0,1.153991699E0,-1.362393498E0,3.609361506E0
7.931132565E0,-3.446635723E0,1.112905502E0,-1.165951848E0,3.804904753E0
7.936148867E0,-3.587233067E0,9.764189720E-1,-1.094863057E0,3.875610945E0
7.941165169E0,-3.575367928E0,8.096094131E-1,-9.740160704E-1,3.793076657E0
7.946181471E0,-3.499552250E0,6.251163483E-1,-7.493654490E-1,3.633068259E0
7.951197773E0,-3.309672356E0,4.570870399E-1,-4.545756578E-1,3.371868724E0
7.956214127E0,-2.986904144E0,3.490543365E-1,-6.556200981E-2,3.007945092E0
7.961230429E0,-2.581489563E0,2.179155350E-1,3.528357744E-1,2.614587659E0
7.966246731E0,-2.014429092E0,1.072425842E-1,6.753408313E-1,2.127324794E0
7.971263033E0,-1.431198597E0,6.307935715E-2,8.593372107E-1,1.670559448E0
7.976279335E0,-7.692298889E-1,4.749345779E-2,8.930649757E-1,1.179633545E0
7.981295637E0,-1.188993454E-1,9.911966324E-2,8.380073905E-1,8.521843395E-1
7.986311940E0,4.673972130E-1,1.699991226E-1,7.026691437E-1,8.608738478E-1
7.991328242E0,9.301700592E-1,3.245944977E-1,5.239824057E-1,1.115856392E0
7.996344544E0,1.255051613E0,4.595766068E-1,2.985520363E-1,1.369488418E0
8.001360846E0,1.399138927E0,6.057090759E-1,6.553816795E-2,1.526030299E0
8.006377200E0,1.462947845E0,7.817964554E-1,-1.066162586E-1,1.662163988E0
8.011393502E0,1.408355236E0,9.996242523E-1,-2.931714058E-1,1.751759855E0
8.016409804E0,1.269039154E0,1.192259789E0,-4.107393026E-1,1.789036208E0
8.021426106E0,1.049427032E0,1.342489243E0,-4.451543093E-1,1.761174841E0
8.026442408E0,6.345276833E-1,1.423862457E0,-4.461553097E-1,1.621438941E0
8.031458710E0,1.199479103E-1,1.481615543E0,-3.969953060E-1,1.538563418E0
8.036475012E0,-3.794379234E-1,1.528045654E0,-4.062643051E-1,1.626021939E0
8.041491315E0,-8.756794930E-1,1.587130070E0,-3.178815842E-1,1.840338321E0
8.046507617E0,-1.376417160E0,1.594013691E0,-3.049364090E-1,2.128001424E0
8.051523919E0,-1.870209694E0,1.608046532E0,-1.032146215E-1,2.468633469E0
8.056540221E0,-2.404864311E0,1.607567787E0,-2.276736498E-1,2.901634339E0
8.061556575E0,-2.741261005E0,1.590209961E0,-1.416900158E-1,3.172279256E0
8.066572825E0,-2.843454361E0,1.592243195E0,8.265537024E-2,3.259954448E0
8.071589179E0,-2.797509193E0,1.613921165E0,2.197676301E-1,3.237143344E0
8.076605481E0,-2.655961037E0,1.598075867E0,3.098425269E-1,3.115120848E0
8.081621783E0,-2.416348457E0,1.547349930E0,3.118636608E-1,2.886224284E0
8.086638085E0,-2.063908577E0,1.512634754E0,2.776485682E-1,2.573882523E0
8.091654387E0,-1.627131462E0,1.465612888E0,1.871024370E-1,2.197859244E0
8.096670690E0,-1.184594154E0,1.428561211E0,1.409318447E-1,1.861158840E0
8.101686992E0,-6.954050064E-1,1.332580566E0,1.006268859E-1,1.506480952E0
8.106703294E0,-2.763385773E-1,1.233417988E0,-3.758949041E-2,1.264553641E0
8.111719596E0,8.450126648E-2,1.126342773E0,-1.869894266E-1,1.144881458E0
8.116735898E0,3.297510147E-1,1.073740959E0,-2.346042991E-1,1.147473118E0
8.121752200E0,3.490419388E-1,1.029550552E0,-2.208691835E-1,1.109318625E0
8.126768554E0,2.736330032E-1,1.091212749E0,-2.049781680E-1,1.143519276E0
8.131784856E0,6.008911133E-2,1.164663792E0,-1.438272595E-1,1.175048395E0
8.136801158E0,-2.081823349E-1,1.208715916E0,-1.368525028E-1,1.234124247E0
8.141817460E0,-5.123691559E-1,1.294579983E0,-9.285795689E-2,1.395378832E0
8.146833762E0,-7.664422989E-1,1.395794392E0,-1.214770675E-1,1.597007345E0
8.151850065E0,-1.011157990E0,1.481195450E0,-2.536388338E-1,1.811273888E0
8.156866367E0,-1.201081276E0,1.598684788E0,-4.745969474E-1,2.055147572E0
8.161882669E0,-1.326532364E0,1.748526096E0,-7.774990797E-1,2.328419301E0
8.166898971E0,-1.284667015E0,1.851904869E0,-1.034270644E0,2.479846114E0
8.171915273E0,-1.228651047E0,1.925791740E0,-1.204766631E0,2.582580078E0
8.176931575E0,-1.067747116E0,2.017919540E0,-1.281905890E0,2.618275365E0
8.181947877E0,-9.310646057E-1,2.095094204E0,-1.278540015E0,2.625064874E0
8.186964179E0,-7.946872711E-1,2.123896599E0,-1.295618773E0,2.611722157E0
8.191980481E0,-6.274518967E-1,2.104720116E0,-1.263470650E0,2.533752303E0
8.196996835E0,-5.300455093E-1,2.099507332E0,-1.217332959E0,2.484105234E0
8.202013137E0,-5.167284012E-1,2.115546703E0,-1.205041051E0,2.488909406E0
8.207029440E0,-5.064573288E-1,2.113897800E0,-1.197152615E0,2.481579602E0
8.212045742E0,-5.281705856E-1,2.110816240E0,-1.038184166E0,2.410878622E0
8.217062044E0,-6.442632675E-1,2.038719416E0,-9.293618798E-1,2.331344144E0
8.222078346E0,-6.610174179E-1,2.024206638E0,-8.685001731E-1,2.299706306E0
8.227094648E0,-6.480255127E-1,2.016630173E0,-8.484612703E-1,2.281802105E0
8.232110950E0,-6.462593079E-1,1.995999098E0,-8.195155859E-1,2.252391904E0
8.237127252E0,-6.798000336E-1,1.851708412E0,-7.770960927E-1,2.120101523E0
8.242143554E0,-6.554088593E-1,1.652904749E0,-6.228993535E-1,1.884053738E0
8.247159856E0,-5.466995239E-1,1.457293034E0,-4.332162142E-1,1.615629798E0
8.252176158E0,-3.439855576E-1,1.289266348E0,-3.058651984E-1,1.368973082E0
8.257192460E0,-2.080631256E-2,1.202094793E0,-2.668056190E-1,1.231523460E0
8.262208815E0,3.941202164E-1,1.138592482E0,-2.970141172E-1,1.240943580E0
8.267225117E0,7.429914474E-1,1.058410883E0,-3.337776065E-1,1.335543851E0
8.272241419E0,1.255553246E0,1.074414015E0,-2.807165384E-1,1.676180540E0
